[{"device_id":"884fe22ed5e549078c102f994e057021071c0a0975f7d4bade4f20f0c1fd0895","trial_type":"initialize-camera","trial_index":0,"time_elapsed":1331,"internal_node_id":"0.0-0.0"},{"rt":23249,"stimulus":"<p>Video is recording. Click done after a few seconds.</p>","response":0,"trial_type":"html-button-response","trial_index":1,"time_elapsed":24582,"internal_node_id":"0.0-1.0","record_video_data":"GkXfo6NChoEBQveBAULygQRC84EIQoKIbWF0cm9za2FCh4EEQoWBAhhTgGcB/////////xVJqWaZKtexgw9CQE2AhkNocm9tZVdBhkNocm9tZRZUrmutrqvXgQFzxYdbLJTL3H07g4EBho9WX01QRUc0L0lTTy9BVkPgiLCCAoC6ggHgH0O2dQH/////////54EAo2MqgQAAgAAAAAEJEAAAAAFnQsAelaAoD2hAAAD6AAA6mAPHCagAAAABaM48gAAAAAFluAQRxGJAAED79JqTE+TUmpMSeTkxJ5NSYnxGb1Jm5M3JuTFyakxPk2yZuTUmJ8m5OTk5OTk5OTk5OTk5OTk5OTk65eXk5NtcnLy8vJtl3J1y9cvXLy9ZeTk5OTk5OTk5OTk5OTk5OTk5OTq5eXTXLy7k5eXvNy9cvL11ycupOXrk5OTk5OTk5OTk5OTk5OTk5OTk63XJyak5euXcvfLy7l5OXk5M3Ly9dcnJycIYaZb//STXJycnJycnJycnJycnJydW65es/Jy8u283W5OXdbl3Ly8vLlwm2XrcvLwjgOTE8t/4jUm4zOjtv/G9xd4zy4CvlqYwZywIspq2CrI6AIX2K/+9PjS3Gw3jqXeoTdWyNe7B30h94MdWhWeoYGNtgebaKbbDhuBor5CNp9OH102/3rtFs9nXUF1RFW56FxXm/MAX7W7b3EjNgufUgFhXMlRXZ7i+JyCnd0DL5yN//4Dv//fycnJycnEepOTk5OTk5OuXk5euty98vJydbk5dsnLy6ZcuF5P0/+QQr5cgXJB9BJecCSQb7giA31173GTlep3wIVTmWhDBAfGrTZwQZEPiGkhuYH64NRkHnZv0o39Qh3jve/+Lu4mt9dai+iQBvrZEGfZPGJCSLJz4SrAp5kGcN5nbvptppf2rR6gTUiADSTFD0v3D4xYHOBAHNqLiQdgObDsAGXlWMbirrfNvweoMg6PJLb9e62NLLsu8EXep/R90cY7cWZIOdfpkJy8tc8a6Ca0BXT512NcR6DQeePDRCKa3c6yGzqfKV4JbFPHsTb6UgV5DJ1PVKaVW8uZMtdMIvwNkz1dUH/LkZ5o01CzmykQjlupXDzhl9OtvjFrLh+v+ensEHnMs2Tk5OTk5OTk5OTk5OpHL3y8vJy8nLydcvfJy8vJ///wQ+ANpskb8/+P4V3lgGFgEuVHcYmADc7jn/+w3jPEOYJG5kdxwhBxMUIQBu5JK1kRPKRW8LwIWuYAKWbSxl4oGUUc0e9w3ndlxee9VlzhwIYBAMmaue+Wmn8d7CmAceIO2mEab3bpsldmXxhx8M8uWM6WNCOAkFjmMhV0JUgENES3EablGPcCE0HltzjYq5spojJsZngrFfqiJyQAv7TrS+O4ugpF06NGhE0tLzl7Fli3RPw7WMmgtAFqKrJ0w73do1yCYCiy3Jpe6Sfah8nzLw3JRuqsyFZ+VmM9+S836dm5eX0UmPPnnRBx3hNd2xqNpWz1zU3GAT8Dca+0dvrfgKcK06y1ENSFbwcbv6OIcqhQLAsmoPwB5g0vo/6i2o4p5MoaQyD4f9Y/hW92cK1fn//2CHhfgG9XPN/+uKwrwMbWJ+JoY7lgmPKlk5OTk5OTk5OTcuXFn5OXk5eXbLy8vJy8vLy//z+0EOAJ6MNjHOeyzoe58id3lwDicAE9ToahkG3gSjYEuBuIe3kWT8L3vkYOfwhieizqcf/Gn/3CuELp8hOdXp0LT86yUXWv0mHoQg/BFaA94v/6bbYZJAJAGIQ7nud/0mz+tttsVZUNrp7bYTJAA5d7HkijlSnl7J39z97czmLTF1cZqqP5Wp1LPg8s7TwxgAH2w9YqFR/u9P9nV98HBnBrd10q/bhBwBH6JM9GC75OnBaPOqrZcNP8/jy9KyF5jrBcaTC/u8d00IYG6w6iFq0Xn9/aQ3gp0gGD/kh9g5WDvL2ZEfyV6TTt0dHFEcYBBwaVAgUs6EzrOuOC99Pj9WRT3RLtMtdaf/COCqAMUIhohrZum//rrFZ5ouJ5GWvn0i2P+NWn1qtTrnRbQpcJTwG8gxSM5G8tFw50EByItd2dSSPJycnJycnJuTl75eXLpOXcu5dy6ROXSJy9/9peHhTDKr/oELJ13YmOxHDuSGRKjeO17Z/b/4UwBl//D49T9l/2hFwEl0H9/vvvf3hjABJf8VnK//n5+/r/cKkgDAKjDONX/ne2f7u//uCBgsMK4DteESvX/pydPp8ZQVUAZymxIUTab/60+mQQUANHczYAC6e23b/6i6qoqHCVLLetZ/hetzJ7ctKr81EXn3m8mOrN8dihoiS4gjq6TuaKnceWX7BkF9tzKT/TklGZVOlEE68ipLx1MgFnLHn129LC/KWGt2ph0qHOAMvuX/bf+uQflx1S5CCsLAyoIdKAH+K9oXAHTphorhutRNN4jBcpH8L6J/RP5OTk5OTk5M/L3y6RdScvJy7l5eXSJqTl3L/2/vGFIFQFpulm3bgMlePdlQ6T9Xdci368K4JVy3avRt7f7QrgDW+L876/rX0IYARF9XLT19XWfvYZJADRszYxlz9bt/P/+CBgOB9vhXAFd4WPNf/0/j4nH0N0K4YAZP6//SqMsyuE4hVAUJI9ggz/v//doiTSoQmqSOHCs7w6rrs7w7CWT6vRisI4AHDj+RvTiTH/D55d32+cb9oz7Tolh9IJYQWZ/0Rm+Kt07GK2mUysQ387BXpj//7Cfp1Myr004pmTk5OTk5OsQ4suF5eXUvLy7Zef1Kqrl1LuXcn+yMdoV78Izngykmf4GlD6mSzbCnvfhRxGH+v6foQwERogwvf6rW9kFsAoqBxKjQsQffy6ve7v3uEnAc1Jnqq/6o+Vwq0NnZ6XDzHTYKWo8uhCSQVUSCbDpp/Frd+w0rHJkyruxh4mhFwCiWWOkWu7qWoFWqIUzJol93+XqavTYoL5HdJPGAQcMApmb/p5+XlwoNOH9P3bb8GD00lK+nd2rwMbTP//sJ+uvpoVM3CmMnJycnJydbly4Xl1Ly8vJy7l5eTbJybl5f//+LwPzUNP1K5MxqT3jR+47BM2vMvX/XCOBF3Iu6Lr/4WcCL6V3//WTa18S4YApLpcJbjguD7AlgQtWbf/13jsMogv/1+OwBPnkjrX/pp6aYSJADAeTJs+v/THV2+/+3yQtaUzNw03ySDTgduhriF8jMdA+GyEHAMzoTSEOfPPpMakor0nGx86V/OdN9ZuEMAYVquZd6f83DTtGmstyvWdi0P/8V3u1fjSZ///2E6tBsXvUw4O8ZOTk5OTk63Jy8vL1ycukXl63LlwvLy6k/y/SCYvCimLUUAWxByol1tyYP4FGagCdQUJAJhfST3XvWqNPq6MQwaGVABvdTfIu//1n/okzQyoDsvb1HOCBMgve/xWorXCkAeTHN3QjLgP8LcvgBx5IfidG8CrJ788NO2YW6/xFtUGRj/9+9aSy5ZvNp6oIMb7sv3TMngMBx0p0OzLkjtvpp9VUVVaoqpVPuJ/PnF7Ab9i1Ns8UDyNEn87Q9ClJc+nxzgDAE1gRQUTay/5em3x+PwAMruZZhIwf/LWXpppr9sPR3En8xvxqXA+anA4cOD/CfxY6wq+phx7V6dfOOZRRwCMx8/BCLLbH4x5U1qPjB9VU/63W21yq/R3mxKlY5cy0pIallcqKUqa1/QSC52NmSiCia0ZT3R6hgLYpBIgL9gWkRWr7FrcajF+jK6o0toT9apiCKGXnylXXNfGTLUyBXpNYwWC43Vd+QsSkqYWjQmfsaIz+kt+ql6gtbNwHxo22HQvPUs47Oh3KhElqeDZ6l52FM0XTkB291lz70smbELpoWivHI5MLiHjsAYHVMP577/wR9tY5AiW5/9E9hO5TYrWejj3toXoWfeTk5OTk5OTEOF2y8vLy8vJy6ROXLhdy8uq3el8yD/wpbAWS9d58TjtMrdJCBIInep8Jemd3rV48MOAFhRLZVEmZKNQiuWmsfQT/GN+dPBW9h69vAdxry958LObIgqj/MxCRyU3MTReftum9Gz2/NmQ414Owe8HF/Gxf/9riCPLdN5Kq9zesK4AGWo7NE0v4AnK951ixpcSVpvBvo3wfTg+5u3WVC6GMAyBObASZ8+jTE0oV91Aq7ZntKily7y4Bjwxd8bPt9NtuqIypgwDiD++xKxgaznG9DMCZPePh9ncBtDTBZy9TN9/vTP98zQDQhRBCH/jZa1LzjK1wab+eYlK1Ab5ZAcgGtvKvbKM+Cw9th82v6hImkzQRi4XqzBlx9UmqxgMySz56+0hsu4RCw1knNats4WauC2t8YNCO9a2f7846O/Trk9ROLhMwEOy0pu7OfBp1Dq/EApfUyXjK+8X7tB8d8Sh3E6+nbqrVZQabK1qmQDX1QlboYSrZGCI93Wh/n+1hHq3Y+qb43CR6USMXXKop3GOt/nJsDvZP3cCa/qPzJCcQccadnQzKP/jqkvMs/VRVGJMZcGIo0g6sZEGzesNmomQgdI42dRNSr/GNNXRkkjSY0QnQEbejVlvk4Hrg7kz7JAbS6LS11ayiNvAqsGTz6+i2t8XDrKsiKU+Rxr/wAq9HCB5bT21mYUwBIi600BK///RIPsSQifYkBOpDur0JY+CyEA8xZMqNMxATiai7FOEU6RcaywD2swMT4yrWU2sdkmGvW1Ab2JMPFxYP/7Cesb/+LVGjz2+ZOTk5OTk5Nycmk+XrLhdS8vLy6rk2ycuXH///wpUoLJlBK1BiPTSzx2HFT/v+GMADnmmRoHDPzo4RXLRonyR9+K35dL+X4YcAJlzkQbewO7+Z5d1Wycbh6ROKQazPjaO4LTSMsZjzYQw//+X4azFUp9hf1CY1iiRZkCx77l0SoC/MrnNH4BM12fqr4VTI//kpCqlhnKAbZ3BVr1xbGOlz3nYdXun338ETQFBKIVPK9d6wLlSHVCjTYEj3mW7LZJW9dRbibHX70tNtmwbM+Xu6X98KuAx4mHo2v9s361srcqzxpppp+QlgM6iMwRBNPN2uvaKi6L+7SSx2seTxvkzSQHvhKHb+sN/MSCs5dBILyVvraoyHTSRNzYQvQj7xSyCJR1enaO/0rKxGBsAJZBJAXcHDqwXm9MGsu+E2ZS5hDH7NfQQ/nhTAOPe0QY5h3JCZcWN2CGIun3VTPqMhg+giORAb62npgHEgGeyFbcgl3diciM3b26zORwyQYZxg8IuAxqEDsEcdzjQemigmJZBixKkmMBQGEMAYCDbQWJ3hD1GC36VLcV3FeKOK///sPczEnJycnJycmKy7l5OTbJy8vLpF5dS8u5e9S6///hSPGWmZW0xlSxEYbTZLMdgxkHvf+8coZYYov73+i0QE8HTJ4W9ATMvMROSApr7G1m3OT8mHIh4Mmrkqs/2fnFTFV+MGaZOP3BDTki/R8D4AvruMtn8nM13N9dwURG7fmzW0UkXQcea/hNsd2OmntthVwBiWtAmHxpYcGAyG1YCiezDfvSn4DR/pq6ZBJwGVX6hxOTXL1u91qrQgSAXUKheiByn8W1EPumCydj8S+IfZbFaq2KcwVVHbMaB9xAcIzg4KeM6M1J3tA5yU0bTn0Ht2vnfi8K9JW4L78CNr5WOoQrc9f5/f1/tRZwaktpNeQkJdMGWUfDMp/j+eaVgUo5+wfmExXwsbTqnQDZCidVHS31g3NL/WEMAMrYpVI+1w9cpLriamOi9JsINGkNRPYRO9iCuAbvayDEa8DnsWpuLtQ+mopGJ74K7iakt4E0ZHxSJoYo2RzgCS3ow5+z1+OoZSHcT+YisoxI1JQijCpKAKYTuWX7DGhNaDYJtUJ9BFTYM+o7CrxLUKi/Col9OH1MJycnJycnJu+Xcu5MuF5eXl5dS8ve2XkxpSf//8KQQqZnMwc8wdm1LB1zT3CBIKDJnvdffhHBHu2f9fwgoAM5405HK3m5Y4UHHzmFws4BAskwxvPt/t2Bl/v/eUkBC9iD4ESQBCn3cf/V2/9MMuADPmxJUEJ7/lrdQf9nCvn1Z47Zxvl/1/T0M0EMAE3Eje4u/vkoW0bqnNXxHyeFSuqtm6qc1fbKzYvd/phNwEO0PS6yv3e9XbTLzd/6FSQAgvR/L/13/9YW4fVmOAQtk1qAY8WHB+S8+XAo6/5z3sURqJpN0aLhIaM8SgbQ0O461shPCmAGZ/Y4Cftgy+zg2v6wEigkZ0iljYPk+EItgieY5CA8sMyO8swyBj2bdszE3ACMpgTkG6o2vADXlWJDxqMgbKVBw4ZoTKPfGmw4z0bhCb4/RB1qjbstoSS4u2cCxQNdHx3+m4UJAGdvrkfviE/TtGHh68j1BLcO62CTxXDpPcOoOxMQi5bobDTQvIO/8dhVP/+6v6eTk5OTk5OTEOF5eTcvLy8vLy8ur5dVybl31g1v7b04aUwfM5wKDyMPRN8TDu/x2CLMAM//7jsqnX/+ThUkAMAZssKL6+EsMQ+FuFPUqaJmocfeTsQyoA302RoEM9vvTqD7xxHr9HyKf08LqACiQ7aRBasryemqqbq2fvi2WstbbD+2F1AC90H05eooR7+h7GdCd0Z5VaF5Yyj4fgxko6ssXEdPtt+cziaC8EVbuYMxLMkt9g/0DXqk+gUWkPm7n8KvKaadyr4DKgCuohnmMM8Jfy4p6gmodsofiRwQfYpdXhqWN8OT2EQ6hKClKVfT7OUhzdnZsjpWW5bRCifACj6MPl0IezgNyIUxnjsWESjcsCTFhYGKmFDpWSigefsccq0x0fLTzUS1hFmNYm0ZJ4QwAZaWZ4kEf8FdWUJBsU8wDwdErmUBEHZZ1LB+QO8DPl5xRGbMIQOny1sh2UdXB9hnDQ10DDjStCBS3KmhWVRwwsjxWJGi1zwGuRBrx0qrwfGbBvol6LNiN9nmZYv2OLSfrUK5AcayGwLvf7L/0m2OwoLL/2P8P/+wnKqveOpjJycnJycnJlwvLy8vLy8u5eXl5eXUvLy///8J4R+Rx6agpOn6hbMlqDZW0oEFA99P/X2wjgB1r5w/b/ufalrJwpgBmG9IBwvt7tg7f+5ulhbAGAJIcJ+AqH+F2ro3W7t1m4h8dp+VAv/uFCQEf2IWa9TTB27dTTbrdbr6/6F8BEEmjDFGPf/may5ELHGWW3W67bnyt/dp/Ui+33jjk4Kzgq5UNBLYh3SiOtPBZ8PxrUpjG5pME8lubP2uL9BauYBJjtWmNdSJEdvUi7fIBr2dS5Ek8N+OzgLin7X2N+TWWgXqDGOjDxhudU1ZuxfrNVpbw5Fq4ar/5tGpUmVmzfrhVwA19FOiwu/j2CQFMGcWa7Wduk6KNXouyeRwTqqRmF21WrBWpUqGhKYJXKV9gCRrWudaui7qA4chHYjvT6ewCEuS5b/v8mlwERTX4uhFI/cmt9jr07+zLp0O99c0SFlSx/ph+UmoV5pOJg9ugIpFXP9UJavDsDfcp7IPpeFax95eEAuBa9vp5FyHVZkbGSCAmBp0YUZDZDUNhkrzA6hAR4/OQitR/noW3zkx2qTLGNk6j/FY3O5///9hP2PiuTk5OTk5OTFZMuF5eXl5eTl5Nsu5cul5eEf//xo0//J3fhnAJF6THAHBdAsFdYoFYaFO4cWvPXs1nFxyfTyBNhwEJNHOu0fhA4SNTvUrvL794UUyJU4kZ1fF+P/9S4CHbTnEcaQws4A2Saje75/FfxXdN+9wxgEucxHir73mzfz/b3t5fj3Oq67bNvTh/cKYAYPNbWu307b28v0ycYoghfABIjvJkEPL370x98f8f8d82EVZntq2I6/XdGgr6eFSQD3ChTpUrfjn5djv8u05O/irH/P6bu4rSJIff5FAlNCaxtqk3L1cqdcx5KyZTXnjmomIRVtacwz0MH3jl8wZ6AQNZiyKU/fb6xMnCmV4Xn0a7k04+vjP98XVf6TAWR0BGEEoKLjt1S80HybrzGLSnvjt1zC04WKP1aFEdxsBiFF+FsAKWssbKmh5/yzy00FzRP7ujUodSl2XquJGx7qGqdwtl5kVG+2X8MYBSigE6AlhZAqqxYNTj2dXxzypfFer2syu336n/H4DClBizto711irbLW2Id/L3uKm6rFJvUgQrl/QS8FfXGXL3iWmloSiFTmlVr5x6eejvasHs79S92O6nP5wplaYukbfT//zPWw3jq0xgjMpdLu4xNj1zf5OTk5OTk5MUZO+Xl5OTSJy7k5VcvLv//yeCHDjwBI/XsKWKiAGH0fInkVyHrwEYOBEH2AEC9JgYzSrD+jY8bmDBG08dvnf99RGuDAOqqXEql7RMQsLYh2AONdA/q/qf4YcAFJzw0r0CCFe8K+jxP3d6/N+L1DCgFPOLDIgVf/ub2++PwYy+CrDTTFmH0H6/bhEkAG83NJACPQ+tKw0VgPXjZRX2U165dmuOii+76si22YV1RO2NkLYmN+aWKClmoFsGrNKIRhnvz2F5a45qTNDP+1xrV7StRnNmKT6V/N8XvdsZVN2QFlozN2NjaYfpM0j6kjUZOpez0v1+iABfT32HHeFJZxQd3oleZmg83DF9/FIrJKcfolNmrr4VcATacghdkjHt9G3Pw+4kQUhkDeRj5/nGiIvSwo4EoaRAZkL/vL/+UIKAMLXzv7rXu6uLpGNbt6j1ADIvxG5nsTe5qi3s700SpphHABBpbcoBkvbl+Wrd72iEvhUdUml0DBK9mHhbIZyMYgsqYcpVLuak4cGyTa0sYR6xdBtnPt/8w9ERPYb9SbegvDeYhKrxfr8jycnJycmIcLy8upO+Xl5eXl72///wQ+ASWNiFMe2LdpSf5cbNkDU4IwPvUN5AQ5w/cCMdFpvBB6vDzKLsZOVZFKwRQN8mBIkFko1//dX5oQcAI7JtoOb9O9/7b7j1ADF6m58b+b/94zS4KrwpRZV/Hh/AqLJcAhVKzNk3Ldn/Pt8KKAf8/CgwGPd3//pp/0I4AN5oTlpBFvn5iP5OTned+OJAAgZKgZdEHJL857Ly24rf9KWQK8kT1Z5xg36u2npT8voeuWVyEdXNmv4UwCf7TQKvustk6upYF/1rOhRwBiYpYbX9et5/7vZdSuCA1VBLOE//+/oQcAN/MzZN7yPq7+vNBJBVg0nz7+aD11aDGBvZtX8tn8Ie9wxxAjV/xZFM41603VmyDDt1K17jJKJ6Ur4yDl3Bet84m5RDlZPq1xZhbS1sKtwzi61Rcc//2/5OTk5OIy40vepdS8vJy6RXl5eX/YmazTyjIcenUhaANWqNK3wL00ppwpfvcjuBUvayKm1pYQUIm/9/f6/ozBQGNKXr11PGoAp2zRR5vwazvXuFcAZG40rt39f/EAg4AMu/5Ht757/ub32wo4AzhMyEeibRfH2mXx/T+hHAIWdpxVP/vWoZUAFNkXqM1Un+f5+fv9ZqU4Zr/UKEgA5VSSgNufKoj/4/86GXAGVsErDv86Wu0YU8IpJlPVVWUNtJPuLe/hJwIHJGD/dOX1y8utfQhgRgCtZBZe+t31rEuPr6FMAILycwyf7r7n/3fJ9QioCYytDd68e6+3dQxgAaoUt5yanT38T3iGBObhKOEB8+PjaW5NQdljLYo179QpgE8mRYln14d4Ruh1Wh4Sd+bq6OtKBhREhEIby4ZkTsF9zg68lCrK1+V5c1HquTFZculeXl5eXk5eV0i//+zMcKeANF6Jg6gQyEG+u+0of+EEUODhuy406rPycvJisnLy7hhQAVOJlsjflo7Ard0rx+lwhD1OfEPuT8N6zW4P3ws4APks8XwtF27+c/bwf97fyQ5vy+FVAA5TbWCWee5Wam7tlvXNQE2MGW4oRwAzK/gXLu3r6eqwrgBDajfCfv/1/J1Z2hkkAAs0X4jEqs/z8R4x1245zKqOu3dxuDR/yeIw6pjoZwAbcWT8sdWbqVa5RF/TKM8LLf8KYSqmZ2/JdenX7zlCCgDMqkEVc969f4QcAhZbVbv/74UwBMnehK+3vWV1r8oRcBNegVVT+vrTycKOAQEMSjcQ7BtEz6i4rd/cVuK9QngBukEtzPMF3NDp06SjuJ6fb4JR/SnuTmkW6l3MW1SZVbivRuvXuVxDhcMAyFwQmOqCOADuyljG41uvfpp9UydWcmIHC7RXvUI/+i/ycvLy7ldsv2tY7GVvLtwIxIEfTLBm/l+CgTkuuOpN3ybk1Ll6wy8Tl4QUJ/Ar9//pVVNVitqIh26RvW+P5AKWPaWxN8BURISbbpy/qtOGjpp/dfLgjUnpe8QsPxUfs3EKAk9fYVFQZwAM3CUrVYGFM7yceuDa7k6ZWWEH33AOBU78nqIy2ShXADI31t/e7+GX05Uej2fKEHA+qGDP//kwCK3S942CaZh3QioAy1Ny/vP/1VVCCgDBtENXd4te/3uoQwCEvhPL3xjH9awtgJPyIaj//Wve/hUkAS8V3NE//PVm+f9dNMn8S8U9mgdLMz4I9tOU9Hl48aQXcd+3nvOe32ZnS33rXgEdB/Yn3v064xlwoKlwIVEDjhOCLHT3pMVl3Ly8jy8mXC8vb/yb7SKMwKumqBHvt/AGrsQj9sRDmnS+5HaNQAYXicmXvl23yZ8JiHCYjAm36GsaelBLX0eCuGMJvyAxrJl9XnD4aHzfbf6K3egE1rFcVhFwCPG1Inn/vqouGSQAOS4eZWQUtG/6o0W38/f38lH9/f3/4LoEK8nvCTgRn5Kv/5/6hTAJ3eiqun5/P//eOwRvfP7/4nAipcslHYCEFMerV//vCmAlVBef5/1r8oRwCs3SCzvVd7rWXAm3B4I4AKackzkP1988z9nvPQ/TQfYUUAv5CW08fW33X8fxz+eGsn1CuAPo0TKgx2cpatn9Itvu2K4l4vsaIkemmQ9UsZ70xU9ww9fqM2vd5Hq9+VxlAJwimc6VwLrFWExWTLhdy8vbqXVZcL//+RMEOANXYQhO2C/L7EXy/yw49Y6BOMiWeOd8H9S8nL3lwmPoCY8gLy5tJjuhcvLphbAmEkBoZfovqTrvr3uGSQADqzjpBNZ+pOI/6kp46iffriNcgeEsJsCTNmz//1JhBcojhulhHAQjWdbv//uFMAlW9gK/N/v/qUkCbtxwQwB1PiSuvf3ZOaHkwIu5XBRQC66EB87XJ+jnYf3UXH/yhAkAZk/pLv77//uECQApOYZco3+53cS+xjDPJ6HsLpM/wzgDiWgSetHN0J6tnHKzUvby9UxdZHNQO1o37Na3xLhYK9E6JpcJ0VQTEDheXUupeTGlLyv//7NBDgIR0mNj0g96yL5WEo2XBC9uCoXCv74Mf6k5Vrl3Lu9suK33pLNhdyceqP6f/hBQCDVtzbJ//dcIYYkg///JkwmaQnfoQwCQaMZgPvv/6cBWkO0EJCpQwioBP6RB+NDy6+6v8JqCdpn/60/7vaEFAINUdd0O46X/8IuAiuzQf8/e/vphPAG3RORz9PV1/253EKGgGK0JE661twaMmMdKtdQ/dl/9QxgBAKKYaE//7sOPsmFB+2E/ws4+cDJa3vK4LqQNh1TGky4Xl5eXl5eV/ykMCbLXgFEyE4eAjHlpt/z8WQb9Diqptv+pHTW2XvlxX//hwz4AnJcAxxRXQAiUcD4g95kPhk9+kVy6GTl7y49Sf+X9gjN694BuYZg6DG5B9KR+9G+XUCehtN739wCuBGOiwcmsN5D5kAKrkx5SZ8eCbuuxGAN19lQvCWBDjb1f/9voQUCXZTtf+38I4AYOpSHr9a361fqRw+VhcCzq4eCD1yCCgJ/f9/3l//3jiuDT+x3fD5UkjVUUN6Pt7+GcA0DLvOURq5lET5syUoOkfZ2C3WS3dFKSjPta17mcOqHoQUAYWkZfXv/7eTEDhdVlx8vLuXb//sxWM8CMERhdNw9W+2LZRbsRDXL+3C2P1d932p98jhCXfIuq0y52P/5FCu/gJDBuJs4ATS/wZwEaAgBWOLrgd9te0IYNbcCF8rYUHENE0/wGibcVneN6rce/m47Q59Qd81l4QwEzcov9uwS+THkC5eXaJuEMCRQfebzw2Sv+98ShgOOI0EoD/oUSS/jre8rmoVfNUBBBwTjkjft/8IYIm4e+Xf/COGynDZ9//qFME3x681//3hRwAlvqx92oXkhZK7LvGdbYajnAAjDfOLuX+7yjXPyYzksePBMPKwJOAgL4Zwf7/GrneS7mdkKYABUpn2EHLokbYos7QJ5tw+Ft9ZeiYoOftUJ7IYcp0H/47p+Sfr3rYqjQXOBACAAAAAAAQkwAAAAAWHgIGcBbuX794JbwS376IWhx8+zU/d1yfpbXfWn8IclcOqv2GuHd5P3veoQsTsxCJGn7++9ckl/eGeKyM6ze6wS7ktq0bjoXyl3qEFUJQxlhDCEMZAnr4ZSByPfeaLnIJaaOfJeW0W/xOb9R8NOqJDfNzetSLslLDcHtveQn/VjONnP9+HayHU/1/lqpPMZ6vfuF8fFW/errVv6hrPfLmXga3vLvdfR6/06qxGVnxpJ+9JeijcTKZtkXMlzBAIeiF4TFQznu1Ed+GVwXWKrw5Lm4XoI8NXTvNZy/0TvDGeIfdOuuEcogI2yYMPMj48KiseMn+5kOwOrC8n7EoZyuWgsf/uGlxfhrcUT/am29TYchddPlyL1k/TlaGeej7vu+33kUfwpKp5/Z5dV3npcja4U3ykjb7VnJT5bwo7y+VgfqGKObfE3pU3C3J7hS1DUpPcXeG5SQTu+C7Yv1NmYjcEG4WUyyaNB1IEAQQAAAAABCTAAAAABYeBAZwFxfaeUu50gJL5P3UkJebK/7X2leTzW64ILxLfEPbzqPxPMqx0HuvB1BLbpKR95U9COkuPjswxsnhjrRNufisrHK+OoAxli9S4qGNxa2Xtya8JQvsT40mKpMSjJgVvfXvf2ocfU6ie9+F+J3rzMQ3TOVuT1tJuEd9/LRH6QR9xv0O5ablxPoZnHs7DDfXT+y3l9Quqjycapsn22tfrhKOh6I/wNrn2/XeroJYcQ7PcbHT6W/Y+lVkXPs/XQQrKvr0aeT6W6CUbOPwhPNfyE+r2aGM8RuS0rCnURv4xO+94My05fC+Lkq4dgRqpn/LHGX3/RshH36YQ14RcOUQ46u96Hv7F4bRDn79KGsXEbts1hDBHOv53+urXatjOdVzpHDEUL5h7fuJrx8MesDbhpSXFvau1V/vvC+epVNf7jTLue3C94m373sgmGUlP7eHJCjvNNEvKIHxS0xlrIptzSfzsOR/Xb+M9iGbu1T76FOtuEt8poJ5SRFue2KtZg1OtMoNRyR5MX1IKL4XRAQhvJ4cBblGcSje8vaiFxkJSkinTcOtoh4zcdRiyfjdwTxIrosfi31hjcdvtFysYY3ymlTosNwKNCKoEAYAAAAAABCTAAAAABYeBgZwFvTyf56e+9K8EdFMXvlRPNl4h7daSTfuH78sz480bYvtoWlxLl9Vlr0T/kcVnR5EO8n3dYTnhmiGnUXvYEROL98RgthT9RfJnISJmpeYjDO9fPr5N+reZLwx7rXu3Vd9yT4Zyybgk4R3T83fwhbFY6mf0wxlL7GL3Drqu3V8n6kKeblBeT7bEoQheBjZ9DWmT6P2RHKL5B4fKveNVT7hHXdxkIHv7vFxpq0l461/Qnze/vs9f6LuTibzqJ1HC6uNJDKt9dk9PazWDv66e9RHjfcON3VIKNW+T9q6CWUCdgvUZ2se1fb9+kWfrhPbyhiEWsb++GE6Xssmy8dQYXxsm6v/0EpQB8rG9yW+8MZyR0TXy3LQLvklYHwIP1H1mv948WTDe9lbRdA/xPlQwO0cwoDIFYaqxft8NXW+L78lP9cT3vwvvlzbyf0vfCeAt/qVrv6/xWYVnJzGYeQtsn3XjJ3jbZuR+jmXS2448LfyfTBpe+NPjqsMZZLdu734Qz0b3N+cVO379iu+9+xV3f3709DqgFLWFFhG5U1/Yg5cR1kw1uetE+v/jr3DiJ6v+OTWtZPdeq0aPj3aXyx+FhX3178asbyJ+r+rssrbqFbm8oEGJ8kol3eGSeLGdLFclymsty73Lst+CCVQ3uNvW4Y3F263WWGfG7gn3DOze+Q5b8E7cpJuL8sBsCA9cEOzcdNlm4r3d+rahqo0RwgQCAAAAAAAEJMAAAAAFh4IBHAW98n+n/KXDk+gH1QIBKzF9YyI440KH338fA+mj6X39kz/tLEYTNi53OCG4vxqI6DJgnljyIxBjDJcXyYuMeUNVWGeZ8P08vxFwjbzV3s+fM+lKT/snt6RaGZgwXy4qJN8he9fCOnT40KFt3oe2wJAiuSv1+auxhjYr2w5EcN7HJbk9VHyw40XO8jKwZj8P3Uy6+I13t6/ouUsnFeQMw3JHwwucVBJ9Tfq3GUjXe7n0Sr/ieM3VRm0SrKhVD4k5qnVYY2XblZPE5eEchuE+cUM1e2M2/HDnE7caTFq8M28WFbHC9/l4rYR3h1Lg83sRFCP4yPT/pnlKIDp+GulcNNz/i8Xw2zXaha/iZF5WLzqIX7VzGXi+Plhx18f2uXctGggXwxS56DrQbHav9hLhD2WNMUm+IeRZD/D1Wa+NjHX80V/eS3DPFa8MS7HEJ89foLXCMMwYDbn7cPav9jpMmzMgKqsM1jOu8QZN/eP04Z0Cp7+NGivGvuKtnGfH+8rPj+Wx3tOyAk5cdvh/rHTHXvuff1eFZEDWTHSr9/zcbprjc6SfdTM83HkNaCH6lrv/HwQ+XS9ETUaKylWn7+EfIgky1MGfsZyd88TRaJd5xAelkGcbHTvh+LRuER0ZrB5UdzvjrwvpdDpod9+5/fCsL7vjl742OD5V/CflFYdn2dVl4S5s8eQ+91jMkuNg5nl9C5EfXsJSiiLNHkOsqYZz3uanXCG5R7F5kq4zxqd1Y88ZFpuPj47dhY4DOTiZfL5feF9yVqQonv3kb4Rvn6KZh86qtDLnEGEuGfQPreGk/IJubbX5H+kg1njw9PCH73x24cVMI/3GITo0Ni2uBSd7wvuLe2+Opjk/t2x0qiRTDkLTsCALA1y5+PjZhShqavnMfb31ai+Plm4aIFridYehZ4WOLeNEjGiJ/oIZPTta8+hut93ufvx/c2/5PbFawU9e79e+M94ycEaiF2g1mYfEipE7/2CawQEZP4J7tFs+M08ggexp7zGx0YnYLPDLA1yMfod/Y7ffGfb/vWoe3OgQ2uB9+tv9cE0vjq7hPMMyhTmz7Ma8JYRsCRJmPkzEMmyV77mrjQkXoE/BXHUx6fOf276WhEPZfuVhj+h2bj5xrf39x/XfGW/xsy6rhHZ0+7HCFiXv5fDyJbCW/jvHKhtH8OILz/PLk3yr76xHESsPO1LHwkgqHimCOk36rxlvrXJDSTj46bj7E7w2rN4sVzP4njMzD70/fVz8JY+mfhGy5eK91bxnJ7nmFhKEzOD88sTyT6/HvxXuNvRcLj74rL5YJv+3iZL3iCf7VHr/UfKQVhyJ8pIC8dEE/9xVyYenq6Sss+KetS5I6JEaGBMx3xoFWxlxffNnqvx5uTJ7wXaWUI8X42BAI6IF8RbNt0vGahlw739jvjO7vribGf1VcTD2fhH34cY4OL/8Z3n2TbfMnKkrKXhM7s83JH1q7xk/Ly+Unqz5WCvkiWCp3D9MsmXCjQpaBAKAAAAAAAQkwAAAAAWHgoEcBdIpVCBdKPN7SVftQScJc2Ggpx4MYjfJIS4Ib9/hB38xBGi4ecnvouO7h1ZBoZPFCN/JxMr3+/jMgwkDXQ4+jjFz6BLyWpPGX4cil4y1/VCa6sQT/ifh9JxvDAfxfGd+kkmevy8VBw0/E8ORajxdbBPnffe3EK7q8m6J+Gv13mvDOxWU59y7mSWOnQ3jZj78uhXjJw8eTQxuENCtMpn6dSQgWT+F15fNxETvjNvbf7tvT7lxEL7i+a9uuXsxpwBvhDw9Ilq/NlLwjv27ez7dcf6rXGo4bIjzngo48+iG/dGHZ97zcV2Fedx6Se/4zDjK/ppcohxwbvwhrjneU0XNFIpss6qGmvowuuPFccTH6aaTOHePiA+/nEm/f3+CzlzHPcjNy3Qym72PhCNgAn8F3LnuM9ltMty+64t1A969cZyn0WONbDk+lgw/zZ4LMs8dfa8tNeJ3b7Glx0JsMN50LRs3G6fk9b0w9MjGCWkTrNaakDGtp9fT/gmlU8x2Rbf43HhWj8QwjlQ7EvOgCDeP6/0/CPpuh6ZeMApb5Mv/DcdQfX9DhfF3s/v6OJ4rCbh2sTed/j/TTYMHwzT30lx/fnPw+huaoVWaYdqgznkepzL9PK8mif/ZfBvEiHdxe26FJDh3PEE9ytP73yY6Jvkw5DG5t27xzz35ZL0T+X5Cf62Lzl87OOBMB9cz4cWZ4nxuKvxKtwl39LwjxsyvHb/w02jDpPOIW8JTJNK75ovLq+CrttIUVHGRG+83H+RUGlFBc/6hkGcM7E77vKg93vNurib3vybXoS2K940ChvuKtwa8Zy4T5V9P7phtkKzq9b88Uy7gn5N7jpSQ7sT25fIkhuKcHEKNGB4EA0AAAAAABCTAAAAABYeDAnASOeCdqiCytcdjHvi+gV+WymujGbG0YT22iLCHtdrhqLtAkqEfOMQmZ/V8hv5P1K8dKS4cnia/fvSXGSDXeuafnwbMqpFqIBeEPj2jGw1jgWFaxXJXrD9aecitUnbphGTuf5sGTR9ORnx/M+qe1Hkz1qO62VUjx++JjzUXJ9eoUlTIv6LIcDjp/zrW+MlPjQQK4I/HofHAcBWoN6BL0prh3ZszMbyuvvLTBddN6etVJye9OoQhE0Lb+G73HzGsn0u4zHhM+jDamdHKzhhIHesYJxLw1xWXvFPDDy7vhNvlSv1ZlZxYSXvhO/V58WU1X1xl42mFN00ONLq7vjyVOIHSBXlhw7ISXdqB/Zwlqf5YabsdFJ8Yp4FTuyb994c4luNpnyopV04sJAhqssla91xls++OYfPRyxVWel1LZR3Kp83lX8sfTO8MBhfi1Xw9NGWoL78uOQfZa9Pt0KJhHf40GbdWlWEOq7u+uoQ5DHogM+ecyHn3/gwtfPddP642d/HWSmF2BLOW6Watf6GOFUo/dO+14JZ88xICX930RN/Y7pa23iff2jhlG/VKYtXGXvp7t0I2of8b99qPPr85+E/npX2af5Y4n/p+IvwJfZ72cfhpg2tDpK24+M19NcO7DTxs2b6/3JYR79vjIiPwtY+V8LRc6/nUdL4ik/LOldMWJhOztjRP9ZPtfG2Q2mmZYqQoOxlIhV8qXUDv2hBrX7AlcZrTyEHJ+bycdGHjoYteoHxKh/x4b98N073+h8N8EJMOt2dp+GMDb7zA0qjYev9d/+M0b2z9jz/hvdm7DMjMCBC70xbfy93EfBXXyVf5rYPjs5W9PKy57T5WPhHxgmBqHvICDQRdv+MzhAUkWtWgp8pbHXj+4M/4y4yc1kDiIIrxjTolqxGn9DHAy6WxJe6YY47e+hXeVg7rCOlpRk4Y4OFzfeoU04YhdhkIF/DSXCPXw+h7X9+oT7xgyGstFwhOGMiXehZ1HxmNAm6sTfq3nOZx6HVBFhNr+OkbnEiqt5OkuT2nlRATbDc8Bsx3lTSwp3Ll5fd+N/LuGJM82LsW/9NKKpODIXTLv9DOgvM+Tw+pPjXxmQOypNPh5c18dGDRosa7cZjoLOhA+veGD6kN6st8q/3IdVF48GdbqtDj5rLCMp3DKEU0N0WKgZGeHXkNteUnL1ni/WnjVcMcRz0DErbneiCNnr5Kh+1V117JfXvmrsC8Ke3MGGEThRsbi5B3zqdfF8bTOY7f4LLOvyMHZ34fG46EMNnfwgYaf7oeWmvv1frk/zGFlClw7RmGOQY7+MyWDHPCvN43hQuEprQJ5WOK76U+OxvL79J74m1QOjwlYMMHQDIy//Gbpau959fw2shZYQybXpWjcraUZe8MuN40411a36jRXCHCV3+4runXV560XZYT02ErBSbEsTxfcb1S7d3QQy/1uU6X5VT9nBNve99Ww0CvWtFdhH3v8eu9Am48m7YX+/sPRpD8jJfjv2/vvw/hVMrV6a8djllC316QP/TFF/CknJ7mFfwlx83edJFcPaoz7DX25QwGL9PLwVe+6HXq4IQcK1cRXd7tukMyJTMZ/PHX5ef+N7elPq8aEu8NL3RcTgslFOfEuGIniuuuRnHQJwJtPTvYea9r7xYZ/l4/fuT5P1xenIkM31wVzM2X7+NXXjrsoJuH0mz15JPb9dVaK5szQ9DYPwQxrL9RvCnW2mb+/eyuOyfvvxHCNeZffeuCXy6rLL2HjZptt+usfSc/71G8H7LKIzYI4jMJIlweFkX5heJf0RsXe/V/BLk1b1vaDV4kntcjEgsymV9arGzutNkGKwJgxn4R5EHh5uXcRy1jF3QnCX1hNVwTapyfWpXy1whvPzM6fXhoFtcu73wpyaXM+79cZO3ry5wZKK+RPCPjsH0McO3h8htG/F8gvAj+jprquXx0KXghhpBKuP1cTvhu43VBoHG0Vd+U4zb8nrt2/mGe77T8jDVjqELsnjDd3XHz9/scbXfQ2dL+x0uVDWTemVl/4bk8yScuhfUCjRqiBAO8AAAAAAQkwAAAAAWHg4XASPM+O+CIm48VyQ5uvWFB3qEObiGACR6wP3peoRxYMem8SsfsJ+9xnCBxv6c8Ycf3F9/BVospMMamXPP/fGb8ZOHytxsSaGtgHhGEHm4VC29xD8awdKRxqdp4fpJVmka38IMyC7+NgsUS71f2UPCvr8Xx2Ve+nUX3DIny2pG9R3jhGG+Z//dXGXdZcn7rj4KSpjI4mf7uHXSXQbw1cf1GXwy19VAlInRss6DXL+psQPxqwoYP34U5hKMmjVDopN5zMf37fRMfD9JWt5DBCTik3JymxemwyuGXerr/XxdmG2af52FfuXlIYZ0bPtN8IfbG83IPLH3mJ6+ozw8hVZG8bfDFuYXDNra9rGT/pQpsbRRTnTh/X2rBY8lP3oIUh/Ioj7907uSzOc/E8OsauvhjUWk75CQ4uSL2JU6X7h3UXUR68dvdiuOoV5TmGBNn5NXmlYjiN7v2pFGa1TtjgepvGkLUj/iWTHh6x8/lzTw5civ7wwK1NJP1/b0hBaztUovxoKhcHhi68M2oW5d5aLGWv6WvBBvvDM++gn3X9g6k/C2a8dGj5QUvT2e/Pf+3p8KbfBt03omIyJsaPJVJqK/kydzX3wWi9eEjZtcbRDRB/3s5BnyIYYhtSoNS7f7RCIIdFmMrTZv+F/H+gj4zcv4KxBkn96hNV7uYx8ZvuPiNyFv7WozvvsDUEda+wP55U6KFOIsKrvlMfyV5fG+edH+8OJCKSsnY/T62gQQ/CnkFswVYD/X452ZSD+9n7D/CH7bJk8sHiD4fKOO/bqC/GYtgP3Owv2H6jbI/PsllSvSeUMBKPxqj/ye/tD+eQa00Z6Pt8n+3ja5MeuMaCCO+3vTGT/UJLer/72UPxkFVQNFCn9dkgma1t+cQM9D+SNf2fxliTDUUy8fPrVW/k0CGEv/j0PeF8Raqwu+xhxW+CrRdDfTJnsNegXvuKw03nytvqCrgP8H/p9v70pZPb28bcxbS6V3P9Z6rorX3RfE7y4Wd++T6urGy9dGAYz0fBwZE3hlvgDrVMPeHOjUAxbDehvKM7jfHYzeoHgXbtkrrQhPX13k/1sZ34ygQf52v7afM8YBV8Z86i2QMCnx08Ln56BEDftcf7Cwmz/PVMlouJphu08M5r44keTew75V/SCcaL797pviN4buqVF98GHHhnRMjmI3g9P1oFPww3IZHJsh4r/8KIiWfGTKOWA+f8az6hejlIrgohlAZ1DgLpY7s1DfDOYjGRAfmcai999gr1px8rLRBfmO1ORxG/Kx1ajIRc42ePS2b/7bOp35d/jMNRYlO+XDpWJj+vl/kSfG/bpEBBeSwyu+sBS1cSrHrrt+34+ZJr2SvTXDi78nhsMxnHDI5DXENmg4j6A8OonnmMcM5vhPe/IJPjMfz/j1jtL+oK/Uq43LlZ/fBfh9WsfLGvT/UFXu7dOPPd+L4UynJ0fOICVscHxK/ZX9dwhLvbcwRmPxi/UZVPhHQyiSSU1p58+YvJ/cqQy5YciTmZ84YDnT8Zo9JEfIrQ96QLcpKGAySXgt7EPxnfEeYRF+u2/3pB2uPHBQfCkL/c3KK0/FrCeGAY0SNF/YenhhXUj6rh5tUpSDRzT1Xzb/S3DtI/R1In8puvsL+H+54bvGBULtXX0F/CkPJD+hmZ9Tb/0+hbsIL/+19/Yy4aRL/5kEuvh5cjRkbe6v8bHqLBc+YOO5moRA/gb/ZyNHveffknf7/1+N6WVgUAXau+4U3ypS3vv/t+EL7sGzZmJEEI0NBc3eCDGR1BHxu53Ew3FO/zh5NahPY6gT8gRK9H/gp8bHF7f2qx1Md8Teba8LcWTLmemIr13/qFxVuMTP1oI+dIutuXFwS5kV2/L4i979cVzLj6lb5H2P3SXunpBMV1xHiGAYQYJC4ymE7+90+z1++d3gm6vmYw4S4SbxsFT5Wi+K8+7uThGRQGZPP7xkY+Z8gRvGaNh0Pfk/5sFUzNyX33vpLP778Ia9RW41XwhsT7w24NYvh/omTtDxx8dPPhyVXycE+WM4axoYWxEk/usRjQuC05POo9IvKpnFc/CO4aROfHAcFSCI+F319Uvvdhphu+OiGwr/Eink5t3cXBaCGTgkzQ0+xgsv5PcugS5vXfKEaZvL/E87gw3h3hTEUxIKtZqkuNIL64yqZPn/v61V94oc+ttEKCPGUDoUIjULvJDnVNV/9yJG9sT0tENp1KJyYTgr3Y+znztakPhqm1oF0ZSHpV4OB37VWELR66/ESjSPyBARAAAAAAAQkwAAAAAWHhA8eJzcCqJs3BEJzcGXM+G4QFLUIcowTmI0Wn5BBKB14yAjlIZXLqJDiJPXXCWX6+So+fK93lSDYkn5fhCdJVIdtDBtqDw1yi8PwmI6i3v3Cqy8Ie+YPTkTFN+/GcMs2PYEIQBeDVgEWrlIVxv+32HOXd8n16L1EXpmQ37fHRtBHjSf7fGDnp8ZjIuBDsVr2IvUso0sLmF0auNm4CTWg9HpWm2fUZLR3KR0Z8IuWz89DATL6yyi6HkK8C+RvRdS02VO39qMjXzSw3KJaVVvfTJ2d3iri6zOOC+9niCL8g/fi/HzQJH28eogPxfvnw+bi+fBu55Rg7i+/LGKw7QzN6jebCDlwukSL1E43HBIwK2fI0p//+gj9+7u5ZUzY7zzu6fdMIe+bDZrXBbfLk5HZpFwp998VvvzJp8ZKFhwbn3ind+1GHz63GaWxDIgmqFD7pSA815S18t1WtVX4QjK7Abjkz0EX98ZDIGNdohNprR7rNxfHThxwEg6HK3uNHXtF6NMeT1xG/JpVLYLnuffkv73Z/SWt3LJsnjR0GNjt7vnlxlScEt+737TB22vYtTs/qY3m77ncX7z9/SGW47cxoa/Ii6eVJ5He/Fxw23qJyBD4ad7VC6pZP/v4y65I20+91fQtXptrLssvk+9fIFNa44cOsK0CaUECe4N/+gS98nvfQSpQ7r/6BFEB8I73sp/t3zZfTDCi8IK1jjqY/Hj38gTv+WJG69etVPXoL68Lc1I9Uq/2v9hXeMznxD/OIDKwCHaxjWBHERsTjI7kGT33xl/n3Y+NnFUOkaPPGtt47sN65N+9CtOnw3U7LGEz9wuuEq2EE3w2hrf69J0EPaywhIw3ZtGCu/RUue51+if+4zrOcwJH8DfmjBif+u4K/6ICRtLHn67gq/psLVxvMToIdDSEP232sOyWe1tfjIPX/fjow0aHH+la4ZdDvIMn1a0NtYkdQYgagNvq0GdyO8Mw1TWUQITOXYbUJDn+g5P/Ubee8aEj8yZxn/nXXyU+T7Vvt8g/064S9c4bMEDUExVy4ikQ2EOQS54X+kIzMmMrUxdeg9sLQO+mb4+OXz9fQ+yfqU1hajYIMQPSb9V/23jamjh7Osl6iB9eeBwAYz4kzX27sTuNt42CBDPbvIfkJlLEBYuLWmIN5kZNHr7PZSfS3Q+nGBI719sjXBnxky3jiVb3Vi6v3vWo6tdWvMbUaB3Wj7YxaG/hTokIaoN+sf7xdYX/1IQDRY2Hasn/q97hjN8Iq7vyLlNqZKErxkKJ6fL/aCnoDbh5DnfmXaa922XDMxqfvm/oSfDFgzks5Ewxux/bb1paMHvXOk96/LXXBTyQ242+mDe/ZP7uhNIkczgBusV5LFKiQjHbWeEN6fOdDyUIzJ71kJtYb7kcZGYR7ZEU7Q2I/8P3Z9MOhrGdx0dH6Rxg8fSpTXpcTb02024YYM8nnFO9wdu5vPhzN4gX0QRmljs17Xgr9aYaSk77F1+CDuxTEW9tNgdfvXKcFfbkzv+6r3kClNEkeCbrptH94QOet+lDsZfGxxbQwb6J0xLwACRQjj48aNCgVEC8b6x1IkIUOgw+cYO8AFoIUKQSJcpGgBaKfb0PV//jJ4BG7ln4YXvvZhhgjA9+T7rwlfsMMLkPx4Q0KNpHoXURhyEMhJt5NCKGTnelTZWmmmkwT+PAoDs05JO74UjwLqxIq3NmXXDzK6kICToHlrgeDF0ghs1tHbBKcQEPIRHvsKYc6n1on6nZyPCyEQHVh71uTCmjMvp/kUjyTdXd3PjcJe6cP7R9uAFIF2l4EVpJsZ5zZTFOvxYRDKQATr2ul4zWceb2AmAkKgaCIvZ27ajGq7xLYQ6k4HB5js5kD2vDP/4jxkzs5n3xMeROa8+GIQyeYVmEB+HZ6HqFfGfNTuv0+uw9ai/nSTpNft+4zKuQm1a9zBrycHhtCTLC/6TxkirkCHkS5AvGxT5WsBH1GQTfN+mUdu+CfHCWAi8gbjHxlnmOX4eoZ+/o0IkrFzrnB+bMx6frhGV8aTvhjeUknFw7fhrKZBskof5xtiHGjq/CPfwg8/UNNffeoIdDGhxCF/bzKUnrs5CAn5sl+zhjVXMnkbvjp2DbyOBTkK+u4IM+eZLx35oxL9e3+oLIEDcB7Stqdj+xwufDUX4H8EvpWpz43Oey7TYaYdhT5eHkT1J+tFX6WUsl667z0r2xu9dN0M2iVjMGA8qYmzB25y+tjsvusbxwf9Y8MZeW8e3s3RGUxr/NW6UOz+fGXDhDn//K9v9Qp3v2n8tUt3wlyBu+ckec0j3a4ytfuaYZ0I9LbePjWnVvUTNny2NDECloyfAY1gmZbShGPK6E46AA70/3JCAMa2CLWbOpWV5P06x/j+7/spPv8Kd4+JBWdUu/x+8++hpnH/VVE1rkh23QzkS14jxR8qSm6etRuct5Evv25g7f9V+Cu++738Xc2eAackHJ7+kMklj1gyeDcN/XELECFciWhC5gg/rZvWjh+wt45e1AmNrLrsuihLmXcXx2WWafW+67bsfmX6VtxkRO9QTlS2K9FbuP/8fD+t+Z6dcz5fdAWT5CG5QhMo+dSx3c/TwlyOHUSHE8EVxtf3VetGPi++b3VoIe9+Gacrm15Vi18M7cz3ytMxVOSDsb6J5GSPEhA+fX9LUJypfl/r4QyeZms1TIvGDr3kVY7xoZAjYPhP/lhFIisXvj1N6QZd0kN6gsza6rLtAnxxMY5MobKaeH7r3fvGhp5XyZX149EL8x8+6EZeWZ1xHt2X3pDb8m+u9y9mteitWRei+CrLk+TN+X11CN+Vl/uf/YJZc4yZX8oIWPCgob45Wta1TG3L/p2933w/frkD/mM8jXvDOnD6LECs2EkLvqP7ljyPMfiDgu6rvlEcEcvu3hFykE+O0t8wgY1xpDqXi/Nx4Gh3MxHH337yyKwli4Hw/x5v0jam03g4DXWuVR8/F115JBHivL4QuRcfER/glhtE+cW+9YVjHqupuIlwubv+Pnw9dVWu/YT952L6cvFaoaczNewlj4piS3ROEj5Z6NJ4IEBMAAAAAABCTAAAAABYeEh8aNzdrg443N2gnF9oKRd2hsXn9QZQ84jSdVxPlzOQR9u8I5qNZohFxoUbKL3NUXxBeNyWRja2aHkQ4qBHNnFRfF+oIuZcIOEyvelpjoJWprKe3v1GX3e14zvgOj2nKdV2J1SkQna4R40Ka5RlDgItC9UihUVAKvYrfUZ5EBc35Ug14lFtEG/CkHWCB6hFva5hiakaB4DTydeMpx4VLTRJ/nxSZ/etJSEFUsNqzyGO2M1/Lxyiu58r0A3drtXGeiBXE/yP+rPBffc/k9W9MZ1g2BuIfJ/lPgWE+NyLpYw3fRIUQVPk9t5MZzozoa6+jI27ykt6eMiDOAExYLe6BsKbwhCRuYT6T5sJ25gfSiR030kdgD+eINw/BU+kHFuSa7VqD3F/D8rx8ww6gk4zLazUXg4iB2XKxKh1QQjN2J0lzecMB8ZwTfP1xyDx8+733DAbE65Yfl4legtm2+Xa/t6asbvveNGz111/trjNgNNDRo4pry5GiN75z7fWo60MBzWAgfd/0uS59XAXr6i+Efat8FVrTHc9v9WhrQojsPTsTsfj/fjXv38Kdo1Ne8cSZ7peCLTv3wRZ8+5Oy8FXj6rXx2TDybixJb7TtjPZdr+PDk86UvBPrB2YnFJVLwxr4l9OU03GkUZxDvHQib8/5d0srEqeomnDe8PbDDrmAAS551g4wgvCXvw0kTxlX+b8V7fxm3vPxw7368rWLkJ6bdpdRlaKR268p86HGz1pqhM2qFgorKa3LzKgkgKPsRYfonod8tO86iN1HSx8jpsZv7juW78uext61j7aCLL0ozCPl+v1ydX8gJuRRJ4iovFjaGlrFLF7Ga1Mbv37Y8CFvUI5/HTLNDb1/G73Llrq8ylO6/s9ZA+CjL6b/sn6bTgkwwz3gN8n22VCkN77vw0nyOYl0bPR+u1+zJDhe4+yJUfN+lZGOv72r9Z0N1jl0TGCQg4fmq7aZSCK88gD+9W1Mv7AelTCGOhZjzk2CjH0X2a7EF2joxvuvsZcQ+ViCOtjwMDh5RBkn3e6WUZGk+T61sbIMvlRYbkjw/Mv6aHQ5tabX+34SprvnmPHJGxsU+KWK5Jp7jex8ffn7caEPWgNTblJaXCOWO2v/Mkk8ocq1BXazrQ/FyMY3R/NQGlLgduplroZDqFUbYbxrB7f5bf03r87HRth3y4OR/pOrPVaZK3/p3G+zSxgGiIG4C6/Jn/AvnA532vh6/+v2fSeN++bN6TA77Y4iRHp12EvphctnPr9/w2/LLbqCDnBAEMJfBDuaQvoZ1zbj9JiESXf8rl+cIHk8z0sbBO0u9vprmtee138rGOtwcZXr/VPSG+OynDvfKY6fX38npNuo2CP0c1yYVsrLTJbDsQNQHSOFaQF8qTI6+L7LJTw7Ad/fbmfC2PYjdqeIe6mK7n3ZR+qfQxgWqur8bM8h76Qv5wt5HHZBZieVoxPWi/kVQoev6KGSeQl6ieHnYleD/uZVPNCFeB3xEawILy5Pi0Ebokubv7D7XCHEka0Hgfnzbr46/jiHsVUzpPbrjOO4yszplBoYFHJ/48Z6qP8pjB7uNjIVJ+E8aOIaS8/sFviax6rnhfV8fjKFVJiHcdzMdmNQMMAyIeODG+v2Do7JcFHBjxdo0KX50+N0iwpYzOYy0f31+hdSXRPSlokbuHV/uhVa+8DvNXtfIlz7pjenvry6PI/wQ7f+2S66fbyfrbgrpEnB4wcdNjYG7qH4OR5BPpJZqk/ftDKSXHpj7GPG4p0j4dBX4z41CuQMD+HnefHx8F4Eq8FcZEFIO2ejuhMV5Jh5qtZP7KWgjh1Pw/2ZggaucV1+J8cJ/fhjQp6FHcblU/Gb/T2sZq/hjjXyTtIv8/X+ibqwtwFEzdFHPfvOstf+xm4jGJ1cdYfYuEjNv9sRNx+nu4zxlaLsqVtC5f4yki2CqgfvNMHfG/9grNXLqUmT8pdRkbCrmTBwWjmhA7i64peYIC0QHeLUobh89kIU4+UEAdmlyv73h3aTBrx3Y2+U1nk9aYzD7rppw6M0WGmDGc9/2M5B3fT3oUIbubPGQO77G7/L5UmNsmR6/0K0fHU/vrmeBrxE8PeGpcegbY8PpKQIWp9mEIn1oQEl/0XjZcHh3KQF/wxDwLe0yTOM5jHVB9P6uG0JR8MjrNlS7BBTb76ZYa/1rUbp5o+TX3+M/f7VuoRvau+RL9xEtLQqh1obj7UlzXQKvXtUfHMbDSXwf42EM5pcd8cFqaGZlumOBD0zWMsfIscMDxsTssPmXD+q+O0L+CJ54mGIjn/4/KMcqTGTRq3rsb1U98P+ZJOJB1FBo0WYSX+zWeGZNP+567/6Vmmkw9ttEmT+Rnr9P7FeX4SuH+T7CnLQdJAfRJlRy6XuCAj4MC9U4QOQIBzlOteO61M0mucrHKo9bD1l5R6GEjCCaijm8v9EuMkZL+/rT/hqNAk+5LR/hfjvHQ0GG4Vrw7CWfzuyEXu4Kc2jOMyRDSvzwfBTzKk3vT5lNahDwgcU85BUZN8OtsPEHk/XLBTnNQ7eg83x7cMdexmlOjT8gaVglVsa5T/gqjr4vIPHAgbzuPh7f8vhS9lL3lp0kvvhKrwxyTj762MlgeT9rj6s6flU+NsJN4dua8eGCNhr3pfCXAt6ajl/ohYyrQm1x8tOzKvlo+R+etF/0t5eHo1ygx+gYC9fWMCArjDfovsZzqeVitVn8MusDSQtTuX+7X8sE+/3bqf3v63Jr4Ur+THvTu1D+EOmise3r46hkj46HfT/E8MJC/tk5sOQnwU5lPMx231qJWqdWg30675Ka4Q6fj10qF+eoRvPm/u8I8jNDi12N3D/E7b7ZWEfL2t3uw3YLNdc9Fj+zolwj4Q/1970Jm2SyApu/p+Zg1Iq/h7NfNlSKPX+qnzoFHod6k4J8wQB5UtdRPLrrgnw7767xnBZzCgxSvQ79Vx1vhrsOZ7/xMPKc/bYeFIrOT8hSr+EvfjeaxKyqIqO68Qe17/uIj198P+MpjlZvquy6L4It7yjN45s0q5DmzRgibFN4Rkzlj+vPhXwz4RrXsEt39/fBFt174U6+WVdEumg/uzs98FO4QQ9dld77t6PVR1XpxLMp3FcEda2yfUzcEeT4VmGaH+lN+RJJ6zHrhSldem9XMxu7v8KbeZMfSCNcIGVvjttn0U7tEDfDTrCIrXX6oMgn9747QguBun5ly3J9/hbNAa9+ZUV5y38yKHtWkjAjIT8hqlCHbwmcn7d97kg4q3glVsQsWughne1nZsbLuuLjRC0t7l7Hc3CUMd9X+q4iMU+/ZPReGBkFvfvfeEMnCV/jApd8Zde993vpXQU51Einzd8Ou8rzT8VC8Yr7Ao0i0gQFSAAAAAAEJMAAAAAFh4UHwVjtNoGZ4jBRwUFNSNco+lgV+oTvLkdF5eNiCBwVxHCnsHaDrEyMNYUBqqKD8P6uZP00zIKTUDtOCHnBsbQCyjmi++yXVfDTUu6gqg9UAPlVzX4U+20723uPsz5KeOSVY3V4z3JigETonQtECyL5fZL5a4xVJ/PqH658e/u4/igR3LMW6RBERvY3aX2fDh8uO+/+L480eRt/tgsx8x93nf9k+14n4yw6Z8Gp1wHAVAIShO6WS26uki0/oFvUZazeGBhhJJ+VgNOWOwYCgdzhIw52kb/5sINeNgK+TTvKDGqXck9gONOkBVyPUIBkM2HTznB8V9h+1cvDuwtcFG68OYl11Wo4dQ0tQjyYY91vJ5HRkd/H+mfcqk6gc/rtNVhxXxNRSu53bv2P8Xyjy8nX8FHP5b78QIhkVd7COGnefe/cXsJ5ZeGFwX4mcJq4YRjQHAf4Inigdyk+kkm118IXjkK2G/CXwXaw47Jprz769sIPuX2m4dQgiXCrEP47GRIfOt697ifcMNb+H7hRVqvvuXD0Crwz8eye6i4yN5qdK00BjOWfkj/MfO3gbzLjOrH9haOU8Ib5c12gPjIQJe+RdNWbyxtN5a1hA1GMhBRl7/QhpLznqeul/bGT5+2s0HUA73D7V9uMdf5aX9rjKfHTEdKBYne/hqK9sH32NvhjdrMDtNyxn+MRfjR53/saYc5MeufzbcIGBuj2ew/YvYMPOZANA2yzIh/H/we7/QWoKYKMC8p09hwQPf8/tDHjNzmPeNmSwM8ZQc181eJ9Onxv7hndIET3QcpiVf4F8PtHNeuyU3WH15PKX0QEEvgdU0h33xBHqnIJ/xv9y3dzCQ3L+7Fmwl54ZP2tsEFgYeX0DgsvH3yAvVan/8ZH07qYGhpzr9IqL6G6+C887N4gPjDR2khs2dFD6mhJXbQdf20vCGA14yAkXZ+6x58lI52/xuEvhY3mrgGlJY3vmkZWB9tfTezY35PS/G/CNw80E35o0Y/IICJWnUzfymP1ZyV0aA5OKkZM3Dcjxm4T3+4X2ZFX7XhHMpsd+GUp39vmUVwv0d3fvr/XsM7Ui/flf3143UCXNHJ+LY1z/5lDkDfr0Jj6/obL9OszdRmn5wsv37vH3lM5wzlZ4ZFZ+92T9fCHjl3wfr8zEnpFLmhWGEEkVht/nBVbf8n3iI2Lz2+Ui329Hr6bAWqhHAQ7oD/zL++/eoe/lGOacTHyj+vSYP7QS9xUGcf5P+6E6h0ICIN8AdqvD6Hkgdt+j/SyglnX8h87G9E+4+pAhCLh1nQ/HQuSIswMk9chHhMVZsNvJ5AY3SJWxVh0CcH6nlY8vGKbXe7cMVHYjszr+gdqTExoYIOv85Qtt8JHofzhlF+/jNqELjaTrRZNEOBaVqGm8t+NmGhgfi0AV+ljpzVC4HKg6/2N7E7aHHUxBLUxYwZRvaM31kuCflZW087dMvP38VnCAMZ+Omd/oZh1rjqhjA6Q0uHzvZagHW0EAZPW/CF8OycRMRgfe/QUiU4YCl2CCl3dtzBEkWKIl9F/GYEj0Mu0O7KoxBoEycFnMQCn8jL+eGsM4sJnHUv8O2BRoYaDGBIf4R8CBVv+3ht3L29CNVutaSsc8uPUuffsO58G/qhhcmGDS9fYXrwnxm4/09Lw7HUxX/c8ex9l/EVYMQEz3YbzKeEVHgxwNbFf4j8Pp/jr/F5cNVcbvCLVb4zzocNO+0t4oVRx2A4IEvtr10MXMnDjPfjBwGhRecN6d9O+G4zeG5OPY0Kfx2fa0XeT/3COGUCptC2awicCg0CV9peCbrEwd7+K3yApxgRHaESHe1setZGEfPCNDxf1JBkScEfUyTocQjl3v4VnUB5Th+3bxU+01+CqlZ4/977ScdOodnQ+tt3R/gqyyw7C+nDB7T+EKcFjjhix84YcYBwP69rU5PPIe4gTurnzghbT/Vsd3u+bd7KXvh3su8ZsfpQ9f4IMMxeY6pdvul3X66eRnrV/q4KPTUmbLJ98RhXDKDMcWaRkNVff+JjyZ+6zKh4r1dGw9Wh0degga2OHzeODD378V6tgs36Z/vUdx07EC/eQoKK0yQn16kqfESwxk78MOTk/4/V4rBBLxz4S4PunZ+QhxKMSwiVfh7DzUiZoefXZxZA0NCCEfyfP422ciXUhATddfvjdqlljJWx2TD/X+RWmwLrIGvCNiaLz0/wp7v++71UowF3vu/Xxlniu017czP7JTl/xs0CpE1xxLBk/Y0tDysvrZf+HcpbbIqGNOXD+hrff0Gh2G49V1V2f0r17bSgqv1T77pdzIpMI5xKPAe8deqwuWnPxsYhf8te7u8rC2XRXTawzngO5r61dfWkYCsxymF6Eby937axCurgpn/e/PktT2gQSym/skvlv/4U9OMovTP7abHv8Lc6Q7OoTPhrvV/QpIclveK4njY217aggxPDkvIlT1/or2QPer8v7fnn2hIfDATv49Gm/oeIw1ZGWyf7CXeu6eGQUTcM45Tq6/+HeO0axGzeZFS2qVP3/437HyhgPl82pPSr/PRc2tRXNtx654KcaBAkbwBZvmp+vgsu/v11Y7JnRKoIYhCP8RpzM9y8bfntf3zKjXrf8Rj5OM83HARFx5wwI8PJdV9yoeGAxXvhHf4J2YHtYHFrXCBdMB1xfGDd9yDMM5oi8Nez+7L/gvtS44eS8JD+O9ZsFVzoPn2Cjer5IVIyjPZuCq78vp83f4Qv9PH7uO9GGx4x2OnTfrTXhMulLZ18RDGuK8eBAbgwmh+MzCclt3p7Pvfwpe+v111fL33lQR3KGArhCc4QBmH6lvwpHUjquHaq6L7ZMqBE+zx2T73yxmrWAnXpR+H4mRrWvXdR//0+uL3vfXH1lzSPmn1cKX/fT3MxdfNOzbbraCmf3me09d7uOGTT8GoQMk4Lr54X3+EfDVJde/wV92qZPmkhteC4CjSuOBAXAAAAAAAQkwAAAAAWHhYL0NzdoN4R0NzdoHDDsZcFBZc+Mkdb8XLJG22DBGgQJcH1WOox7xcn3vhHaKa1JGgTal9FGYxEWNQ7zzQYlVFRVJ95NhS9prERGvzp4/02AmiE9pEkoqGhSUTwSeHYVVdwjw7xKvFMQxDRF+XDoaduH5P1VRGU3glfN2xT5j+T3I3sRIZq5pGi32L9B899Lj+0PWGWAYXcaBy9rYyojFkr7Q5krZ3rP3joQDMoI+2Od6SxqEecxjQkH009oU7FW+JF+bf/yJahQXZ/URBpu4JOYgh8vMr4R39cFkO0yn1NxvIUZhtJWGYe3qvVHv741K/BZ5M30tvY+/pX4SOHWXJ5S+ozGlQ4XGp3tt4RhIrEeoyMwiBqoI1b4/o27NqKcN+lt3CmwFG5k4MSyAp1GJz2y6nqHhI03IV5bh9Qo837G8pRt+EJVhE1mLB8d4Axn74fCZaQfnOgMhMHDtXV56d+ZL03Q2W8IBfKhXNQgDv8EA7ToOzmSXFbp8fohr+i+L42N+00GeV69RfI1duGt6ehJJCIB3p7TcxZv6ufLy8VNul16VE/TfCE3+cloLSt8d3qPIpDiTn5jq/WGtitxsHNx3lrNbBR77v6t6NcRtv5v4U3iUguGV9xquOX38/3yfp3hX2yvLTA6/suQgne+VU5OHtrnhGhde6/1Cwqw6oJcslwVXtXv3eU2xXvjNjpEwlKfzCTx2nlLUoiuC7fh9Ls158/mjBWagsnz/GK66glsny9+XQuXgo9VrZT8EU0h04dnxno5SuUYlYw2+mlyaFaxMv04yg6hLtuXMq5whoOEuJeeNJj38IdV43ls2rMCq96k/ur70L+Cvv1u3zNYoJGpP8Sr1xnVVk+Tyt9dR1+/5PJ/XYze+O1NCcqiXkL7H/I+Bgc9N4ajZDjGMavkECzjQ0k8HlQUB+xsY7ovv7vC1azrTL7y19e8w+umvUjPS7E8bp3eJHUTLRxPiBA+rCe5jxwaG0uev7LSElhDvl0vQtz2AsDHYE+T20xMYgV+415+HADEtnmH/p8AF+mjnu85kVPWV+mW0ioZ6W+WACjuv//cc37lW5L29peuwUdKWGG9UfblYfjpL+7rh3oE/y0ErUFcFrO1X9B71Gz/m1e7iDlXarmkLL4oWaIbaLtf2xuX+gcgYDjieGIQPsKYfikQwi8HceX9+0NmPBDxRKblpjpo7+5aX8/b8zfsKNP5WPX9FGiqPo8n/xZK8019LUI9uOjT5/mS6vCPhy7yE3LdFzJFO7Tid/MOVtPo3J5IyNgf1+D2jgCt/8MK1uvou7yfR34Q/OV3lIQwn56jfoIbFxfrH6ihU4iy5uQLPNRfnh+N8bEvwiadh1El5YWEiM1b95qvTqr3N7HQvyf14IMowEIyAUqLkBo/+b+YpK+Q+v8wofNfMFxY2hJ5g83yfr4esny/Qjmnkw6zppCpH+ucmfeq/hbAfUcMcbHHqmq6f5P/UbakVjpjuSruD6UvVPljiZ34mmNvobhCVLsL9DsUn9+NqG9QKhTp0fY+WPl5B+vuZh3rREeh1/bW6sO+dRy+da9bL97CN/jlIwm5Q3uLG72kHa1E7q2sHwjjWJqRh3BnSfL+wt71531gudfRdMjxV1LbIX99LW/hnYQQnfiadfey+N3L+Q7TpyM769ewPxm5d7+fO+ifVZDjeXNErPHHUHlg58Xmuv2B6dYy8doqFwR2ADuHiG8dnF2XV8pPw62uFV4U6gaPnMzPD1TQrnDaZnr9ZPfvCkdxbz70Zc5CuMQzSCYa8faXNeM94TcOMY3l3p7/C3Oony9fRXnwIFDvaJFcue+Eb4fSeOBNfD3+06slkjU/r/eRB7h9FluZYHK9gg+8c+w/4bhqf6WEv1/oLL9hLPs31+F8ZsaAi/1+QYN7SUKePAAI4lnzlENy4MVBu7jwQeEenvHmfwfD2lNdhdBZP68P0GoEFcBzTt8aEVJD28wi1/f1+gP8FmmELFJLMz1Dv4dSzDvYzHajhgfx0In72ATbU0f4+NN1ibggDjY990A4nh6NFsHoZ8bedJL6Zp7NGgQyRcn9x38R01z8vvxoZvGe3+i4gZraPz20+0n9ELfeT/pQQedRKbh+7YhptYr/YPwTX5/fZ6Gd+XbSyZ7dVYQwK6Ucb72BeG0RHjMMIRT/HR3mHfGBXaFFt2J+N0981ItGx6Rr2+ywdqyPzfP4SJrsM5lxvX9AIhaT7rxkMJZtiEdXwuwg9/UfCw08Or5Q1l+K7+HEE98t3Z9de+CzxurjZs2om3NceFPfvLBrb7+wWSreyxs8fl8ZIE9xsHeH1acJp2GRsmFZw71AaD/ClU6f+/S2GQ/sfGd09L0+OCL9fGZk315+4xNuGla45wiO4kNtXKzD/MoIO2ikM57dvjOYbt2l82rQjdx9iXiR2AiBCniFqGfPLH6hAW54+XP4mZ6Ouh3EWK+bXjX/wXZ4fHRwPWxMvl/L4XXcqTw9vYHkfqN27d6+tOyfv0FcxKYlls+Zent/HePvzw26fnf4z5wv7YS8FcPaGJQg6F8fKv50EgYZFph34+g9CbHuED8ZHt2Ht8RjY9v7lxE8r1wQeHYpfGR4hRoM9ZaHvlYkryjXsF/jLwkYl/9P6F0+EoWvrUdw48i/XxhqyXsU5OqgwsMrGW5TFkv69QjffT5t27jdPfvcbqb9W/8n9aRtENP+KqbGdZyI+cTA340XEofm7hdfXQ6Lu/Q0MBj4K+O79djNOVjmiMpl478d6uhWZYNwNS8W2plDIoJuxFyJWx8YEitr/z5HDt307BNzsTfuD8Il41QpRTPgiOwJFbgp1muWGEXBqH/5WuBkktjfUdbIW83yt/E/b6dfhHCH+dD0+h/xli5VjpU0AVsZNCsRfjsQc3hNwJY0y5qsFN5JUXNexvrrP8+5TvC2dIdOyKnhyGpP1+/2E84gKbsbOi3UGE2bZJZrV//QKt/Um5lSs+H/DdYwEAcdruBAHDU2joVYonFHn6eMHLqI4zGhtUpBwQowhP+OA8B3C31bvA8QQ03e92BKmJ67yHr7++gXdL3sZPRLLKRW+fS/1e+qzgm3u7u31vsEEfJqNyt8Zvm/r1+/CvcCXevL9qU2/HLsrL/G5gz5oeHN9Ef7vmhwluI2k6XcRsTcrG5pPhJdmcZuMC5PDAJ6pwQw4iUfvPG/Yd77nxXd7q7F/4XpbjOX8P7FJz1/W+HenV98vXX/gpj68z9deWoniAn5Zr3vggxr2b8v19+EX3NBQGpOK70zqJFbTXer3dn1kIevX/CfKxoUiUfwWPjhC4En5B1fnW7MDZZRXJkz8Jxhu+10rEDwYZYb3r+j9Cr/Dt22RfJe82/dypWi+bDuBA1Jp+xOp8mDpPvC/G45euDA+913snf2Vcfp9+2Rn8GHoNOOwuvZeWHM+zeOiErKYEvLFVwHAH+EQOwyk4VF8Et7+7J7Ye0Q1Z7d9u8Gv4gdktvlvycFv1koQILRF5OMv+r/WuCjwIWmBtE84IH1WhdF37uSq1JwVzqIeWNvUUIJ2hVfuJPgWteUnrxEvb0qcvCORaNpne399hm+B19lxTfBP40YrgWIQMH8n17HS/XiF9LpZeL8dGQuV5cerxkOybNHOBAOrNm59PSyKKQnywxBHuvthkECgnn7TEXy4+8xP7Q77XJCM8Jma7dv6rjtfevexWMnjUbXpckCjSh2BAZAAAAAAAQkwAAAAAWHhgPxUOYMhSwJgqyYKG+oJeL44O9NneyfxfOaajY/zZ+M9H2qjkg7UWah5eNc3TNG3ZkJGoKLx/UPluFoOL/gS6wL/baHhXMk8Z4YTIuFMUaUQF81JA3zqXsYv9Lx2W6RejaoJXJTEdPKkb7fGl+s3pm14ydaoQ0agkbv6Ee+9tL4zEb6ne9aWwh55ZUjYINvy+/GXSK7Lot2ZmLbRKeoXDYPNcwYIZYn43HQxOLpTXmn0rsXI3UrRMEZ4BaXgBOtAXX8iOGR2XKmhUR8I9/ayuGt+L+clOISh1NFl+JpDYwme8P+tq29IZ2U+TwyBneisN78IXonhA/ZBJYTXR6r3/hTD6FwDAy5pky5RsQ/XDP+xidmqwL9al7QxvXOHRZ/3xml9zz3/SZpYGApVxikfB6N4fxkXakGFWIRUJpKg7H/GxCbpNynbKIEO6cvbLY3p7myfY+NfsTuSlKBWI03tydTF6fri+MNDCWQoGMta4v5I5RUgsHVQgaEV7vTxm53fqP3+8md69MFWVKvaT37/GVhCYG8M5oeLB1Jt89m+gNXBpw4wF/jNfOiVCXnOdjPGR/ZkS5GNp7HpGoR3ctP8fj0nYY/p+CvhMwyz+uYMDeKHZcaNh7k/v64U3u675oJ/3IUdfvvvTslY6llKI9efMuqjYfzL74M4yx7706r/eT122UZXjtVGy9oh+Mp9uyPgyNZVGgvBZjsI/djx4bLIY2SOi6+SnVyb7rexkqSkcQX9HjIuBZIfx9LBDrQKvfvlp1FDb1TQIAUZYPA9Ng/yf4gCHYRjaR+NG6H+m334kTXhpU6+ICYRvfum2Vld51ldDwjt7/LnYj4Uu3dfqpc3S7SxuYQGLxoXWgUU4vjdxhpd/+Hq8QH4zKWhASZ0qvB6F870n9HrZR3vhvnRtKzG9D7792smeJkXqROadU3+GXhAPjk2/t80Yi3rUIYj4vedQfkj1oX1YWMvrGCsmFgyB9F0c/v8k9M9f6on5Hlgo8ffFzWKueQ8ixsWhEbNjVLJmAfNO5gZ2ggltLCmuCaldalqx/YTCk8n3E9eJ3syxhHjpUk3G8r03dz4IYLWQZafWVok9S4s9aa/tIH4277vxt0sO2Adtvs5cuBTCGH8zHxBXtaZjN9DcdQOHbTC0XbZtBArDquEtJSEA6KeQ1apff/GwlzwpWXD9J4OHwGLWW1yCZ6pLadyQ4QBXsmA/J9/d83hsRKHiZUU688KPBHFDq1HJkxW242f+9PrhpOxnjoPB63kVpV5UplhmkR7z8sZD/CNX1Wv7vpyem+4/xP8OXl1QzbbyevbYL4EtWOPcEZvq8//5vDlq5Qf8Jt9h9gu28P/48Ynbvr21ji6lcPfY+1xL+cP61G8bh1sZAhewNvWX5me6pIN1/mJEb/ygWfX6K8nqu4zfhLmDOCT6MtiRh6W/o1KXmOSx8jVW30M9rCtIIKkED9a7Di8MBvGJX7GSCWV6YXUD63f85Ye0vRVs6YGKz6/4WhqJL5C2BtawyDu0dv/t/6/0ajt8TgE5QwHeXwviQi3nWW/y+uCKRIbLDcXyjb+FaQ6KiJjslxgn03+9fYve4K+CDW//3ROGoQ5v+2jmXcZfuYfgi9PTtfjQ0dIEMYeJDouHtvFtvG8Bg29bIpYSPxAP5oR/6RWl2BuBM9gb+d6+iM4ojye3pzqWon0n42MiE95zjJ4Eb8OodMaRTP+Ge1VH06/G5zH0cM05a51eN3KIG4Je5NfQ/4SjwQIhQ7gsVfhHipqTx/vCnh6Vs1JRwl4bgoWGWz7jOz4yZByCieIo6sG7Twh5NM/B+PBtHhmwzta+Lp+aY3da1PRhmGZCrUyNrW/VJ4GqkwOVv95PVXCIkGFI354AAcbA4MMsvlX4wGAwH8sb77y0GGmJdEJ8g7zd2uYywsxchaT1aNaDu7jI+EdCr9mfX2Axg3vp99IJZu2fJBBCefPqNuINkQx7mkxHhE09Xkt1YfT2D3Cm49/75yXrSGT+/GxPvH9Vqf+7VBp8PL1RpB27NF6+wNe6sb7Lh5LQcORasif04fWRULBX3/QyRPOl/jA2yJ86hEN3Qv94iY3yfUr0EJE9OReDz/GwAEpIjO2vB4CpMvGWyAhlBvH0aRL7eP40kU69ZRMmyt5F4XV/oI2PoQbd7H3RrK+tiMy5Pr6nx6CtJeqmEM+e+99wQdcOMT7Kys19/J/buCC+ZsI+NrEPq9f07V42B26G46S8RGEHgPaEbYZgzjwPXX0Av4/MZ14QR5TjwPAdw/8bHxyQlIQCRNLLegixloMpGbP3RwVIMoimY54frg4CuOhK7IcCA1YQXx2auCpocfbvq7Ocf7KLzGeDvH7A/J7mJnKJ140egaIoIcIjvUStFtdhTH0gpiwx6b5eOoNu5aTo+D/TsnGd7x2l77K1D9QpfsRehr5UZOIfav/GoHw2T9LaGWDCGEG2jaVXBAqvXSJcRt4b5vxZkVrk3xnJDHRcb7lzgGrECwhdk9J78bkOThKZsELX72xt83oiNuf/jkTP+xd/G4Jn5HhmeRlImQRJhyv1Av8+0RVA6gneh+5L154R+G4t4r/jAaPjYiai7LSf4+rKzUDz3Eg6u9+K3ge4V/QS/4H/HeOneMA6PFfxg79oV4bXK5UHwU/K2udJgO3uo/w5sVn8sB1ffUbGBB/6nhySf1+3016rH4vtOOsukXNw9j3es7iSfr9g/w9eaPK1L4npxw8kM1IYCNvz/ePX68ntydjPxkaCoR4mIdtSXOsK14ne/Z66Ki/hTuoH2GMCB7QnMFPVrjbxYnpJZHQTNdjMB+H95+WylYRf94/5U+/RPW/G6CvhqGQ9hNsOETW4SuLImmbS9gXGyoHDtbWO9T8vGhw64KZyDePR/+73oE+WD86XmNVYSu+fTw7f9BHu8bon2M5elvVtDL35zZuzjr+2Rwi5SATP9sJCuduPZv0Cvhk8NugMtZ99vrVWN4yI8w5bgxPT053Iy1LT1Qiu7L8GHx8Kh8NfW//h6OarM/nvyN911w7GTh5WDbjA4Z87jaqfx/gs9k6UxnHX7GxC8kEndp5lphHr379Qp1yw+935juM5GZlR2renTfHjWT6btRkgxICDwzjY+IJ8JuRE4m+zMu3Uvr0xnAipYtKuJXdff/3+OvcOpdjuff8NSCCNTbFr9DzcZGBBFhe8NwIA14bkMNHoNLylYdlKrehGcxuGkR3+TipwgHTKvcwaPwh1yLBI2/cqDdSEn0Czrpw4kcv9T7mYoXQ7Xf9VxHeRPcMOY3UffDUYTMsW2O//BdXHzgAfKwVn1PBB8OxsEAYWuD4ClUMgQZNirfHInWy9bBbvvrFosjrgnxxMkb8rGV4lek0Jo4c2VqLTt9nr+scKc/GJcV7yBMw509hbovTPi/twuIwrwFW/E6Vl0oEHcLCuCUUsE2jURKBAbAAAAAAAQkwAAAAAWHhoE88OVtGDcOhQaCEU5cBJCNO3BC1qCodk2onAorUtOEOStY+Fc+xffyw6FxsuFcy+HEoQJQt4z36BkCjLcYhupBiK4e3sDsn5SrYQkGfVvN4j8E/88iSlBsSp+aO0T1nGrNjJ+Heo/oIyipxiNMkMKphYA79XN7GmwW/VEiPaNFBAE2H8UBa6ysbBHqcwCfVI/1fka5CIY6andWr8jw5dS/T9RnAWXQfDn4g6a0rlepTX0ci2b/ClRkNZRpym9j4Bb/fWPikt62lGYdQ4Qitx/mAvfO5+IF7xlYkO6jfjpCUhoFSQu9/NZJEgkbQ7VlEBStsOLVfvJtfsC5Jf2ahqHc5PzN8Fel8OTfuOZ6VAkV8KZhMdGCJB7PlhoQBY//F+k5T9eyey6JjOxkQs+VgvdfjAhF8Ju8d1AvspCnwUdys5ig5Px+4zXKGTTwJ3kBmhi30j7uwRh0hqseXohmd5Tgbh7872wIO3eoyqbIyP17rVkJ2/K3OU4ylYHsdeJwCXr1niG2LLequt6qcSupL4iezajIhf99XmlVrQLvMAG0C7WmzFWAfqWpKrbGHjf6x2jJeEaCtp8FHXFooN204MbrvCEMY3glQ80/p7byHHcU/CX86H+iT0Hg2xPDQsI77tNpKl9jO7382ZN0qwp3G17vxoySWVeTY/xFIv5/NHTGUi+xq3Fv1b/deP1ogK00VgX+tGhmyBDd7aoZyA1/dQCymXlMa/KIi+QfH+eB26lNpkYOm49Ql+FKdIT0add0G949DodqrF8fkFuMtJ7MXgTx/js8MQQ3C3iOJFZcHqvy9MJS0jue+Hv7kKCzUm+lruG2Y0E+k/n70nxu8dXeiaytc+E3fR/hZov15P8hLD/OITIKxanNEltEiUIWY/HAsRok6/s9s6HF859/HU39Vk9fCd6vvXH9K48OVjXmzooThjKpKFWyrDY1b1XsgkaKHdD7S9/Ckex2/NlMp01rTG1i3wV+VKnz/rVKeJBZ771f7v3CWq6vtEQaBHTp3vY2i16kRBXfy474XcOWHXyU8n8I1iZBFZMx5r3/iRW2NiWdZqhdt64Z0MfHjzsh0pIuer1/Ix2/fMZzw6FeWT537KMjnK/QdHpqeqhYR3vkbv6IrycZ3FdjKkUmHcvbB7es9+MuUGrk4QpKPzodbXuPFVEGw3Fpq72I4jR1Fxonvj/s2qVqSi+ka7b6dFV10hHlYd/o+sq97qxm98+mCTlYiHrIq9EtGiwnhCdhqhec/QIVPGfJto1jhCm5xOGfPllzvYvKrnYrIN146Mr36ZjR/7IWz4Pf/Cu993X2T9FRYR9FLA7BDfA9U2jbv9QQvHZrk/MhcZDEbZA80ct4J1K5iVaEbFJWp62dtegultjO9/cccaAj/ufGavt2jSoEEuDsY57g3IpbFZyjTTVmwULyqbDPxH5U1W3/4f25q+VTFvNU5KnrVflhb/2M7BkuvUF4ugkFsL2NxD4cFMXjC0O3l+bCC9AiG2A7RIyoM3UaZK/rSIz9F142b+aiFC2bhCasN4vUgEmjvEt1szctXQzV54HoasQJ0Yv7DMxZCWFMGmvNVghny70DUaiZWjj90nQt1jmVSY8HeCyzvPj/DXeH9gjmDAzBid28fCNKopkJjL2/GThnEBlYfB7k/fsKdkw41Lng7vKDp7pgV5zGojTnSGxep+Yy0uOjcKavwEvLUH9PzNyXn/sb8LyXtxDexYMnOKRIWjOd61Ug1xl9Pyel+N+EfQb6jwMy+A+i6jf9NWsD34RA8947KYdaffTqwBovNLUTD9BN66G/eRZfhpm5UyQbcxSeecLbXfx0cjU9f+7+TbZA281eo2/xgLdcDwguKDfzMYp09LLHmKlWNhGyvLZm5DXOa9jZthtf/jMADvlWXyWHE9tbK/CfXHYVJYixW39C8b0ieoH/Hr/XDB/B4Frr+38bF7fYnj5uEGsYh4wn4/vqjh8owAoy9zTmXJZxgs1p+XEmEvQkB3Gc5uZr5zDYIs/YpQgPQ2uBC1nDvkZ9uw+2134Zi5AyLryotD6FP/gG/Wnl0sIGIu+eulMSA5PtK6GcEXguyDckWY377t3ICf4IdH91dEPIsXeJHXaYd6lweyZFrx4yOpnazl/v17YJfKDseTfYyf9NjcJqi3hSNSIQDvfr2zIlfcxkBeJN+rR/b8O9eb/SpUpLCR1drv3f3rQRzZtfuujpf7AwSoVuW4els964xtsuvrXyL4+N/qNh/3TQVwA/uI50P9pRoQzXk36TOZ3B/WMjtDj9Lkh0OxKoQjz6U2O96ctC50NlevlbQOYK9MjXyXaZL3g7I0yw1UyXi9wofmUL+xkjXQ37XK7MnTPP51GHHnGbhAYJ/nL5/p/424TQ9g3jItXEUTbPhxT77q9SIdwGnCgfAJf7XjY8IV8sIG/5Tw+wDKU7SD0K4be4XdDePJr+vwpj4p0MjuE0w4PvOBxBYN/T5oaMOOIuoZcE0YaEnOn/9egjvh+nkHnym3k++sbHxTNzCVy89VPXDZtxLHuZ4jVoT1r1cf30huKlYG+sL0Kng7/Xm6SGmVkT3dJY/PZ8eDy2mVLZJYfnz3D4OBpLA4bWa+V67fYL43TMb9SNRBCrGC5FPAu9//tHmb+vxve8RAN/YB2U6BZ3d747n6F0pENqxmrtIbZp/HC7t6ouez07oJB7TDyoO2ZLHYiJNVJ6Z6OfcOxHddr/jdS4LB7aYgjqf/B83TjxRwGBbn3A2mDGTkHznrakf16nYhfjPYo0m6YoFg9gZwxUg8WjBqhBCI2xsqsZBHo7qoKYqE7cQ2k1cc1Tu6yoKv9rRL3OAmbeNLUH7AgCYvJ9nrhDRYvH/7DOMTLDxhUGb3HB4d8PoER4U4S99JoiMgSvOpoquDygh/DkK5hlNOevQJp6Xwsbd3ihHFCtyZBUIHJy4T3+wj6A77HhJ3hPic7ZmC5/7FZTrp6au/tjKb973ywvtrhHfGS4/lqy7yxs+X7QPvYME+mIY5gTIsS53Lsqohwl0PZfOMp9OZ9P3hVEBq4gbKWgDzR+DeThSdH/C0F7NedLhO40CoQPHUhoYD4fOCAP8bAh9APl1cC3KhyZsX/MtvwbZx9mLbAnjxwX6VdDE/s+as9oCYjMW8c+j/jeIoMANChzmUAJYua4dbrhD/mN2qMKQ2KTY8WNGF58peMMbCHckYcZCC0BeN5JrSsG8dX6qvcGgh0KhoQyOH69AzTD4lf0/jI5B4SkYu5vPFSX2IF1M8AaLx7yCrzftSfHdsSFNYQ/O8e5Vyxt++WMoWoQYgVxorCiyWgj7yxeX/jrfM/VibCruVf8TbP2bv01sZYn672MkdvqI0sLouxdN7Z0AdahogLz9bQKK+M/jwn5y2m420yPzlhAUPs2Zd5yS9AjRTjyvT/xk0fCF/HfmUjh0Q1eB/dJhsSywsqOKm7sOhBHugcz1eCorsIpkZoD7Y9BTzPixnDMEs/bcdeG3UG7CI0bBwWCRPn/8OWpFGbZ0lHLaYPf28oggi+X78534tozobRpSdlXNnlwJ6/7q1y1YIkYPbVIb5+COrcev8bh9xAJvD08jbPjUgmTAR69ACnS+VFNjYY1ALiU+Y3UiGRbk3f4D6ptAAOtHZ2BzAnxuyyqXu3/lfFJBTG2H9PKXVwbqh2bUpC8Vxl6mSoUTwDXo8TNyX8dTyZfoV3NKID8P+CuaHt7xsJtwAA9qSx3Hj37+dfzAm8bbvldeIFYvw6tovDF6CFyrzKqcqem/j6f5gADjRaKpcn8Jlklj4OWkQmtWz1/t+EM6QZgH4dSKuz/jNrYySJyCtZd9t63Cnp3b65ECs7nUbSLg6x+OPvzz3Gevzn0fuM4YnubfQdzWwMHSucz4R4vTWtjPD6VxdDzCJC2M8X4s1VYavyoGsLTL7XG1I0bbdupMYbWzei3KXodgbDC2QNx/cgIu/07vG7KG2Bx773eG/D595LsL9WB+cFsOVOC5eIcn5GbP98+jk1jv2/h/V469VeVDFGxd+xv3Rh9PHop81/s/G84l5j+GZncbUG9E3Y8YPgjfFOXbb/xvOZw+hzo678CTIKibOBetSNpA3eGL6VaTIeAn8l/QND8P8eNHTJ3H5EtdfOr/nV4qBYraxSxPF56SjBceDQerx/DyXyuWx8v/fXBVyale/rFWgT46v4wcXF24e8Mdk/aqXddn75Pxvd7+VIZTPxsQJiBfVLvoKcvr2ok7yiAhhKBJVzLmT61xlMaTkt+D2mSgPItgy2wN/h+AOt3DXyIjUWem8UM5TdY3uGuwl0CK0HAgaTmUTGNP6K6i07UG7g+XF9AfqnG8aN1plC4sIIIlW8/DqTgVeO3KE7A5xBWN9H6hT8YHnGQYbNHAMkKeRe2rHJuKJEuhXLJ/duNyGn586gYGXP/jbTW9/TXClL3hgMh4fu3FTw1q2w7fG8unENCoZd+kMvUMsb9RUyRfX+FuRXDK514agAWuzT8+Hcd2petrFOp+bwwgXHUb41KGsiWABEkAD+HyP/xn+tv8s8V7dt3RPohuwlHomqobNh217jc6jPAdvLRouZ5WLUdHX0/uNqxC3hx9Zi+ogbWZE+ny350LG6S+366GyE2B5+L0ucAIEGoDSUmQTgz/HSHkb4DD6Z3p04rDCU6ESNu3K+u+u2z0+468TO90f7rYhkX5Dz+r/Gwe+9GGlM+nYhEBf3rX+T7q0h8qm8YSkyo8lbSUa27nuvW43w45QNamfFLqu/vk3eVIw3p/xmyY9d60l37VwhkbegZaZRBWPln4UyRftfDMT5ma1r8bOJ0GfFJZjN1SDcwuiQYFPFVdM5ZMLwIcoQhH7ZWui/V4WzTqZyXQtPbhIxRGXQvhPjPDUWMHyHK/ODA/KEvqdmFo4KL07+f4K+9/N3/uQgSufH0z++mIviuCzE/fvwU1jngW7/vn5TF1cO3M+33tx2rV9fk+06xssEBQ7Ftl2VqN6b871YKa1DeVaws0P/CmC9WsSsdXp3lUSKBTm66emXV7Vw9vSCXErB2o03NITaUHq/69H9rjd17kVYgpCbdtI5hEPzymLm/X+8n/pDbv+1lUpjwvPN4I9idWhFWP3+c9f1hHi8dyv+3iNBTrp94DG4na3X45VsKd7vv7+Lvt6qRhnx669la+j9gnzLLl5RBhiExw+Hu8O1jn/7s1RL/MCm968/Tf84JNLl8FMaBCqz5abPmCARhpgfc9hba74wNy6/CGhXjo0b0JAhgfQJYTMEL+O/afisvvddWo3WjQ+WPPncqrcdf8Le2X5mXX9C2uP0/bnYH0N3rrQ7d7T7p9+rDLBVpt79O7ehk2epsDAhOeB2EC/Wux/1P2a/3nN56fjMvonS5WcnWZ12kP2xw4+VpeGVT/jedbZtXnv2l+y/BX4SuXoC4U/08YP+UTcnhA6cd+Ep0F84QBpCeKohv2K/0HteY10Y9CVa0XDp/+gR8p9h/RBPzH8X693oE/jqbn18L8kt9V0f3VhSMJClK+Ht6+eGzpK8Tj7He992nPB/LCSWpeSZAQY4xsiKEfLDiEzlSXSE8Vtw+rNiROGWRiutCcPxdk78iDj+C7kEB19RGS+FJ0buTzjCDnRkSuxkLlOCM1CnNmY/CfJveml29NWVSCMqmN3Pr4/gZy4QO5ZzcI9/MoKFMdVm4IN/vOpgdqpdF/x3TGSrd/qxCak2HubkiLD1BLbmY72md4MN/HBNa/Za2TL6YjivCLk43yeQuLRbtK32bQQgb9lUfYzseZaJ4iYg3eVm4is2xtugG7TNG2/f4ypqWtdU/RA38/8ckPqKNQIIEB0AAAAAABCTAAAAABYeHATxY3En+qMwQC/bhlraCUU2VhCXG1BYKeCNqFAfp2vBqtVUEffU0ZieGLXjIAJHhEpcf1/T+M8xij9NDLQk/xv+6/D27qG7zNGqgRqrtx340+KPFidRkdHjxmRZQhr4/zrmSmePAVWEYOc43LtRUEINVr4urelHRYECN6t/Lkn/uM5QQBGwgOHLMTM1OvdM4J2LhR6g4r/Jf2d/GccUdqIlwjVx11RX4C2BAddJ03U/IkvUZC+qcw12FGZ7T228nvp42F9Y6xcL2cyrZvf5WU2z8JOUjq6CLvpp9djOzDeoCyBPf2H7OSkXiTQX8KpBkPseO/M9ph4QMQ9XLU1D+06nnNlIplGHV1/3lOx+opoon5voraaZ/725rjvPZj//bujjZ8v5EX9G4RFMhuJFctfmjQmN7RkqfHZwwEeCDaKGnvwbgPo0Il/S7Fe3wh4fM6YRzqLF7xsSJ0rYVuOrBv14k4Xd1XvekqGfCQ5b0hKt4h0nfFP2r/qTKp34qzL6o4aA8xw2R7k9t+xmV8+vZf2pZBOp0MneqXtKrTzN5K+PKfsYcgCRooEAGYn6qZq/OD9Q/uvlZwKZPMuWoQpKELoKsbx+8m1Gm8U54TBo9OX0Lrm8fZDYaDcUK5OK9zwROSrseIy4GEWQRobCWA2MfuQtVyeddYS8qnjV6qUFEbMRbdzVLevYKqt7H+5/zsn1vjNcBmYz+A7+T44M6ZDEyRhnGS4Wai/V4U9ZQg6o461cpcw0EAkG3hAbYY6xItuoy9Hfbs0/vl6dfj6LjbL99cEt7UbfHiI5vhPxicD8Kz5AgCGND/esF672GP1x/jL7mj39kYgerS7Ll7emlYdkfjJEVTSDyN6XIi6nq3b1T/6hSGUudqDUUZBDuHuQS7sfHDuSj4xTTbHnGXdpEqTiszE1OWIYJ8G3dCoQ9UzcKzL2hgPLqTgo7tq3s+C69+OmXf0EJf95IoeBD562UIWD5wQNWEtyLeTi+noUbTeWEB2XKn0Erc5p40a3sN0mIv35XrdMZmYq9mrM+teMmPCEfiArQcB9FuWx4HQyy0XRMqvGDvUZoTpQ4pm4hYsSlH48ue/vr6qiq0lNWUqsZrNmvijiWBQwFh6Woy2RB6iGxDQ4IzDOuqyYM738Ifb5Y5jJreQJTaZeRBf7hfYzxoS/emUj596GHUEG8OOS9vFdfr7h6n/e93Po/SF+T7WioFl9+UQFyAgCQG39kFfPezJ8ljYiCDfhLcuUytzNtAoPxuClHr3jJV+waCsiUP33PBsKzv9lhCXJ+v9g/CHTmxpWuun3GywdzsPVxFs7HBnEg9GedY04t+oNQw1T0rmRs8owsHpDakMdY/ZwZHkGsnO2xHiZv3EA7XO16Xb8bg6Xg6TEyoZBAWhAGDqYxPq5S0MG2Agr+51Enuu43ZhdeQsmGkqfKhB+6M0cPf09O3RkHcO0mfDGr8MDFfKECi0C7CNHnfnUMo+VE70CfKevp6+JrMnJDiRSqOXFLWT3TJcLz40MBTWA8aWABta/Z9LYL52c4gMIH6M8/6+GPdfRz0Z22mH6A0ymPAHldyfINIAb4Fn+/37ZvwKN+497o1+y/GyAsCd98iugIHgL2QYbyMPN03pMcU+fB/fphTjJCM/TtYf4ZYC36QNKfyL9jxeHdSUj+y0+N6ZO+3hl+7vjB1+5QAsvUlR5Esb+O7VZ0XeRd55vFV9Aw9pM+T5dcbLmGN5o6pjgJLv9z6h43H+7ak9+RUWbx/5dNBcy7cn7S4y+EuuATNy5go3H57bQTu4n4AcxIaPfnH3xXsfOWwAFQg1XWD4dMbD191m84e2bP7Gd4RVZV2ikR0SqOHwgJW9BrStDegOf7X+gUn9vhSbPTjbj8Woe5rqHB7nFuv2nNTL3PVWtTtj42Himgker7onp7sOjFu7EfVmERF+JJxjog78niJF2FwiBG78XPkNr+LAg7AIc5DSe+pF7NgWxmJU242G/3rkI/cqRnMPwsyo8pl0Zou0eFVDkr9HXvx7mK0TlHYG0JcyigtD9Dbj6JJuHgR7eN1oeOgiDZm87rj4OKg4vili7GX+z3HZPma/tntSVxWCT68hvYHSmJ4fQJvQ6Gpql3Qvk+CWvlls2ljdhL8fT6bHc5jfX+zk+k+xv3x8EcO7diPPSdRFI+pgVrsl2a/4WsXdSae/1/R4T7r++qLFb9/TkY+9+E+HeDwETXIO1+T1esLZD69R4Y96Pi3X0B+txsJcT0M5frOtZqDJRXAf77wLrv0+/348mZ2x/aR7CVyI54Tq/nfevDtF9ekpLKRv6a9P6Vx3xwz37f342qEBtRcEYt/O9u0PjWhCjHRauOGGPxL1aCCeZYEj21y10C6BX2Nx9Q3dsyDsA3tbgWHaQWF8GQ3056GXBWyv0f8bkZUiL6ZF+BDu7aO8dMcPKBSWrNLlSlJx856TwIv0/UZXhC9DF4zdxkcin+yAYCB7BApE+yxj5ay0P34z2UEAcdIsBGbiDt07qHcajDv/xeAesAjYstvFIojB2laLzBGB2hH4LryVtJYzlZCVxcgFANMpn4Scl6rss/jGJPpJClD0B7ufge+zZS8mxsBbc7wO/b9i3nxfQC2FlQYgD0Vts8wc+y6ShpD/aEKfX1/QJBSerI6iK5cx4PH7H029DWs21tcZf46HuhQvB2379Rvh9RXjE0t8bDAS/GPn+nEt2PsGl0SVDcv+NjolJFH+DuPV+Z6fye1dUNhT/9LvRehirDaNztfws2FvyJQ8ZlR9OJW6PZ9fQGwMiD8ZBmGypGCwpepScjZ+4+cpDbNsG16LmcY6Jnwr7wp3ZqgYc6bbhfD8oS8ME04ODOmiim/Qt2eu4fjeV4D9+IbfqwVN0PCZx+a1/fJ+u2FOgPUDrYcw7TnUnBywWl/qLZTsvjI4JD0T2/t9fQWryKO76HRRQpUkKeLXJrRx+nmEMaeTDmELD9AwvT2xDFhr4yJBfotzF+Lj4X1wZu3wdpBaY2+NqvJ31AHfV/DyDJlLDt5aL+hdoIb99ufpono/WNgSdyfRwMxrD+W2U2f8J33zoXKaGAtYQKa9CVJnXfmZ+FI6Om9Ff1wPAkeLvQVvJRCdu6g5dCycRC57oexuo4P+Ean2kSGvjfrHg0LUGCVswJm4wa5+IzwPve4B+mPV4fv8Othoc0wRHjqc5XH1+2YFLnjJ9LqMi3DbKWdEDGCH9qMcN2CPZ/2Q4Sarg3a3Fa7SK2rc/HYH8NqcP2BwQ0Xi0MWxLc2M51E/x3Px0ElF+vKFszehz1r5H8SI47Jsohp1fXJm/2uHUZ2r/kPjaq5n1xl+P9pSCsrQAmGnefuYsUD4x+ozTpVyRFx6PgiWoXigNOtSBAlSNWXiyQC+TWO0nkpu4zYwJ/yLf+Xt+CRs/YdCw5wgpuAD4bma3sZ5gSMwCjDtzxM9umGCN7HB2rBoOQ8iJrHz5oPAVXYySIkfto90aH93JIYJNqUr3Yak8bhyIWZIRnh+7amBtVunRcGPTdAcLqDZE3Dg8NcAvWyqjG1PAQdjBQq624XeP/kLZ/+NmZv8Pqu8bLgl6Y/CGdcnT74D+B4UytCoAGxAwcTpIr4vzubvsLlYM/Vvjpz08nrI04JdyCy4x6+0CcN8+zoozKYvyiffzg0PQ0TuOGa2uBPDa1KO9VvJ9y1isdHB5zH1py4SySHRArof4S4yOrNIaiX5PeicPZkrw8ubevT+qwVZZ7sH9mIxBzbG1/vjLYNo4uV7QXGkLap0+7v131ClJ9FDYzlBAKxp0LER+nTZsmFK0NpkHCFaLYRNJl1Wi2sQuH8R3o4AjCCQMrLZ/qDr7oWPzQ/G8ioPqTmED6/Cdy/oOV2n7X39+N7JRo/ddAdgIuHJeA4xBejPbq9LRrSEywOXfg2qS5SX9cn/WFNZwT74whOsNUS95dj6UxfDa0/vjLX7j8tW/2mlYSWkPmJ143MExldogWHQg4bEuIucPoAA0cG/YkWA701FvHYU6SdGvIHtgxkFdeEPpjY7VwPN21GrEpf3IxWEBWXIrxWbkqevb+3MV4fSYCz6o4c8kfir/sdPgwjOP8rEMfo97WqxuQIA8rLy4GUkVi9u1KkfegW3pp9t4uvM0+Do6tpfwpum2NzZkwc0MmD/g3EjmCBp79HS4afG5NDTDfzgAJ5m/DvVKCgMLucwJvw/z+C/jQJE/69zNmar19lZarGbmJF84gQ2vV468nq3BBXlSpk6PJ/dKNhDgZd6LGwejVxllsoYoNwi6VJp6qXBt1b6bfqHo9Vd3FdiFz53evoPpaQXkTRqynmduNNX/p9eN8VUCD6bz2fOSjQ6Jmz12ovXo+z8E1ZqevvFishES9M3KYgHnpgnRuEpUhaHCB+FPxs7ay006+91v/pB22l5dfd1/Zp3aQzxsSUmDE8ou9OVVjR/ai8KVeGsGXJpqiBJ+crUIA7qFxp1xMkc1sHZH2bjlW3ZorHx8P9lKfAuojzt2ogfPC/cO35DjS8rD93Z/ZZP1RHG/GUwB7kCwfFqnfUfEBA3yc3T/1rX71zD6FlvoosDSXJC08+xolUFO/cuccLV4jXbCNLc2yEbH5Pt/12MzhrDCBeThvApVD5RdSiOpp4W8dceNGnM0a/mXixy6uGK1JzePXZP8hcKZTkS9owdVHHgNzTEIjabm+vbeoxTo5cZ32vvl1O0mh9R2yYgjoxF8r0P1W468fnsgK793w/U1mds6Lk96ksZ8ZEoWcoB7L6qBfkDB+Crff3L+KTgqv2JtyQlEBmOZfG2hoHb3oijjYGhIXtXsv48J3W0v/G+s6wn2rjBjWJGZY1uu9Dt8dHJr0dHnwzju0U6KQI6ZLkOk6Drvn5sm98urcdd79+TCaXL2rtT0Pv4aRIPBSKUyJpKaRc/5CepJyY/rPb4F/htvH6CO26xkUGsETmhraeMrQSfGwdVIiX/pt/2pP+4oNyIN1RWXYoQ5sZBCP+4wDgauIaSINwSrl549pjdyeXO/XovT6lSeM5e47jo1YnPIkMrWr/eVerK2M8MSF+7caIyl3W2HqDY2hGb6c66HeOmVv5GgRGbl3uRLh6/KwemRHNw9CArb2/4Y7/xo4eXR/Ik8EUv7Jie5hfIetf6T9LKM1+aW8v/wVeVgfJej7D5TwOwMojQrCVgoXCge6PictLnEe3WNHvuR5r6Dfy1L8lHPs7/Wt6nrv+vDu+hp/df6Idzbgj22u3HZo8MxNjhnvttKX+TM3P76Lpp4y+fymRoyy/9FkxitFcduaNFYQcI+NmPiYVcqzHi9SYSddxXHe5YfB/4TO4p8Ee66vi94JB0BIms/iOHNShAOvKr+9Mb7t/DcnbQL3XQ/vEgkqu83BFX94kV5s7t6YJ7ja7vfovhHxle8P8QELIyZkQuEekPLxoZBoy/4+QAOAJD0usT/71w3MnBC8B/itgv7UXNEcuae1qO6fXdjczpMf7ptu/G0En17Y+xyJwwpG44gK3V6NNZ4EB8AAAAAABCTAAAAABYeHgTwLA72grw7BVh2Kr16hHORazDBcgIBacSqd+ozj7R5/f8o3hhLUpoecOiubm8OrD4R6pkBrA/S/GykRkWEz0urVN10BMEAfJbCPtO10S/b/Hx5sB2p5zM2ZPnd5P/cZMMH5JnfOrBL4abfTqNkxBlvkINNgFGrAyZKaYYdLoWGwlbu1i/0HSuH7/Dt4bi0QQ6IDldBjw2DVTSYijF/Yofr1CO++dJhrNIUt1NqEe0c/q2QZ3zSMElQwRPpO/R/jucxPgR8F5K7jfvue8nQgH6ZS2Crff8ka07hHlUX8B9exqTH4mypx0QJqiC5Pf1GRgUt9LTIvjcCyCVQ8PzV/dU78na+vrTgrEdzfUZsSJfRcipQhfowt7V+deRRvOdNqwz+PqKv/jgirLjokrhlbDPzO8Lwhc9FVZV/nXUFCCpsHJynadNXkPoJwmfi8sHqxWP94vNb6P937i+583fcvHy8aCEVhCP1rsThuIKAEMlZkvPZ+pHpaKCr5olQeeD9OCReOysP52Y8k7vdWL3vzGOvsZcJA+CUdLWfsD0b8iJkIqwzBD59XkIGyhATlIwt0M0MRmjiVtozc5icgsEFBFFIb4szASm7lDw/u2VT9snBDnNy0qEocELU3FY2Ii9l/ocXHd9/3sKmwS8tzqPKde56O/xnzWFm55pHy7zMx4x2Nm2KL78fB4okmL3DWPBp9+PCzX+x1ml3Z8nFWsbG/zBodDALFqK0F5g3MplWlV1++kI0Hav42cbpa/1k9cSECk1mOfDf3ujivefPTvh6RB5JbC4aQgq19l9IIRgGBeWQXtOAMoAhNxzFtifuThGrVNuvyIRIrj9VkunIyWLF369cIdp73f06Qyil7NLR0nnBWMHffSIkRr/qIw8GZOEc6SHu8U/BwN+mdxgrPgvQnfmXj4kK9WrUkhb2rMny6VjN7nEBrh38Xho6VlD6Zc6gdrjORXvu1Z1jqV+hYc0wrClXrgq67U7FddeyyKJF4YbSYJNxoy2dFBJbtW10ev9luFNa7KvwIm8zjQpngeA0GrEMFl9zaMhAQkQ4uk0w+5S3A20uMwOgAOuSR+M0ytBCt3xYZr527ob6Nk/bM1GXba3lYTS6U8JPdSyxtGTI2xVWUYwJe2DUqSFPPYEH9yTT7MTf38fL7pzMbe4YPUR9dpc8f0Gfh3youFj09hbVxmc9MraYVjetKIwco37NKKa2/MOtUNNRg5UMk/+xsi6Kz4SwprjNwQHx0uHpbRQwKL9RCw2H9vxOUSvsLDfEefMin4y6+OAkfKy8Az9j2sqn9wphP04Svrq8bHnS8tEbC1UMTYCB47rmkeMA2fS++yEVd6F6q8uEaC/RdKoyCH52SN/CsxxaDq47bjMu+KZ/3ei2xn8biPIb+rCThbhWNfx5150PpSft7jeCZoDNjM8rzUzcr8Iten2XYPSLiu38+gv58SL2BmmtH2/cb/axpq0kAwA/fi/vGBx/IgB25LN2QeEkPqHOn3OcJ2eghpOftqo3VsdHTCJhn8I+z5gV+NWg0peZ6R1O+0dxcThr/cf/fOglnHVaSh98W2wpQcPhA0bbO6uT9bxutgd92Mt5o7FxNAb6o0M3kjWw/OIRhrtwbq2NTQqujfasXjdHv9VIOmcYbI/mMbBjnoIDUyQ0tf2eT9PxsHyswbNjo0B70frJIAA7EWtv7fxvFEk4eVtMJZZTuYGAM5UoOcPwhibJaspQ8WrJiLxtPBzcM/TPKSsWphOhlSwpXb7wfjps1g+0EDjiFoIkXcXd/HZvVPsM4Rah+whLgYB90FPFjKE1lKwwjWs0Tkgb4rZMNjIZVinQDaOBEdn9T5PiLZVFvf6D2Ob/lYfev0fJ6sSrKN8ZQCH9fLne6KSrJVwYX+w/TykvxUfqCiDXpjdAFn3euCr0oBT5zX767fN21Kdc3QpOD/BhMGmnj/uceou9fo/k90mVRu7a3mAvd3UsMG/sfff5/SQoGOHj2fThtBW6G5+C+9obvfigP74eVZ/X6fJ9VZF8bTJKPIO3bt0z2hiEuJbIQpr2xSC/yXCmugcNoQBIL6mpfZNEJ30F42vTH/GgSkM3cUWhte0R7Zutj4St/GfaYtIdPLWqS2qudQPwOjx4Aadf8ZcG6yJ7Q2WjChg7v+9MZFEwbeyYYN+nyfr4R84mYmRUgNYESHkLhQd5h7wBu3l4nPT6UcKUuRTxPFTqHeRONC8f1RROM3vciLk9q5MbTeMDBWC46RL09ZCyA/qFvH9/V35P0o5Q/Ae+55+r3Fd8y4dO74hnvs9F5PaxEbDGM7fbZp3X9JKT2kzFaPX7AX0P37x+531JhqnQbpLBZ7MuM6HfsPsiw/Yc8ha7Do8B5Zo7EiOV5a/0FJ6llWLjTXWLjBJ/42YL/o9mjikiFmefF5u/ditYldXrIWiA0//jGPg/04fsbOqxmDw92FiAPJRo/Z9DSIub3uGx3jgqXH1w4VIA/jJi5czsGOImEGfuNBE8tElFFD4o8Hqw1/jI2CD4Q40trbQq6d0D890IcB/jQMFoj+Ms/3N1RwtnnEB4yGj48VIlwYa1CbkY8kPe3x7hLe0nDbcbabh/d3L7+Mvxf1+N3fJ0yu4dGgrL/UEaAcz9xFm/9o5FcZ3mjbt7fjZ68ZIew00fXnWv/xvIG2mNGoNb2I5nxsfEH4ZSum185ZJkI47aEASpFySrFxf/ZyfX42mlB4G8xcE6A87XT/uQS/4CPqtIv2CEva6I76EyhQ4S0v0qohFC+/Ug3L0VgkAt7jMW1WNsYwPgvTToQEywOnVeds4IW9FVfT9qkMrx/rIToJqYn3itpT940d7RYzDNSvXoVVPZU20ouBY6h2acvEdfHobd5U2/vq/dYYyJWNy7kOaGv15PaVqwQSmrI3IpQr7p1/vVY2pE0M1jw47+ZbC9X3aoTtb3s5PgFXcvHmT3EBr/Su7GX4UTxvLxggKsRGqKedKImo+3fJ66bggouB3rrcsiDITcVLYeyT9rX+wOT6TSsZyL9sdjKdzPH8G7u/6ExeF43HwSQhxftpjh24rBBTHF5HMK7M50DMeDBAzPd4pTx+/crUr2E1n/36GA/mvyiNgfjddQzsxj84cIg/LkwFF5E0n+XEp5o4CVxDZMQOj3/1+jR8nqy+Jm/bb+gGi60S1j3eJjzHep6wv9wj2m/4WhtcY5Tty11/fpiPHWg+dW9x/d1jsb5v2uHZpwf0juS4ZodWZjzH6TWmnCm2IwM3LHOeCZ4Unj/0erP8ghjpDNw60+7bCn3uwhauUYOXdfsp7hAFSACCr3OenrD/7+xu1wxUTzGKvNKDXzIo4ObuSOtykKbCNdGvb/xuI6MjNNx97BrEBi4MOIfvhf7/NNYSuWRqtO+kn/w91UuDwQefeoJO7zKhsVZhKVR/5PWDHxfsuOEv8bxkW/hHhBnKccAC5pgD3mCOvHz5owPWV5gx/w/KlMqZDpU6Sjm+vo+IwytSjvaLVqI3GJaNCMP/iKZiOTKchPV9QXe6G7mYfe4/03vfLTx/Tlz15P6X9DfLwgwLrWv6gNbbZU4t62AHd1+d3mV0Zgtmjh1DwDCxiF/X9T/oZXb9v7guw0wWVIx9I1uxdFp3B8rVHxvLg8no4llJwwNPjhqYYlww9oMPHoFWh9+lxvxqPLqHaLdMhVLYflj1idW8v81K7PWy/8Z3z1y4aZZ5zcnvtpiPuMC4HduONfD3r4fmpvlBa9n/hblrOO8NXLXf4V47zmI4XNNGnSw4gAP1MMkcIzrHPYRt51Hdx/L/i8ksqRFLkn/SjfDknzp3HhI6L/y4q/6fGZ3x3KH2f5EZ2s43AFOp0l5CAqUrdbwtTPD5RA1Hqlle0pOFaaHu+4/fJ/0SNhR72mOZnLxsx/dX/+N74/CPoQQMXnQ/jnrj/XrRfjZsGxmsFN2x9Cb/m2vsv7VpCevWH78OJsy50EbfGlRNC/38EdEpv0DASQxTinD+EhfN730O8sAhYqEQvu4SzcE/k8n+tEVHr9vk+3px+a7qrBLQ7U8voIRVONfFvtbSJ/BVifsGG07G2QQuE+y1uv2WsQEty5fdcft3Iwn9/QeztfbOMyAicx9d/yf90N+PFSUQMf346n69f8bnS52ZUY2gHLPkUeWz/Filn4rKlHYy7+r3n4rjK6Sevatu5FVjPTDftNOYVx3fekjIFASIEIMtb3sdyIiKb5RAvt+Fq5btDpw16LeXDivKK5++G0ibh4OS8M6KMP9j9nrhPvjAncXYU0mru17ul/pFSYR+wLLjeVJPx1/HLHv+H8PzUIx5IV6F5OL5fabeLFZffUXy6jpktESqZ7foSFSv2bxHG5GSY4NLxx9Fw93n6AlY0f58NK8LajOFtBknlDBWyTr0XXEXvrkFcwr1CMIGw/Ev42oajVf2fviaq6ThKne3f4Uyp2WHEjvtaUaPXKCXuVew74+n03c7lHpmHdozi9vMEowDw4ni90h1Me0O4fjgkvoV7He6xfxArL3xMdGTrv/E998r6+bxuzqEt/NuD8Li1sZLsNwiYpt07rNdv5Oa+2SAo0QjgQIQAAAAAAEJMAAAAAFh4gC8BIzYKWtwSE/Tywjx/yZMwTZ74mP39LXJ75NiMe2tiF7ZmJe9REGYYigYnswl9eIkwaEN4vJ6rthHf3yhqOiS1CHdtWXnPhpiNlghWnVM3d++2EPYs69/uMxkYPlHIhmBG13omcgZ8ORS/eQgy/epi9SMiZIjROEMeEHsrGPgvT9QhuKYAOXYWyIOk+Lr4TImav4d5vDveDN1tfRPbulkb8PTHl2P8n2deCei0T75cT7zZggp8hZ6ifWtewnsvh5ugOO4ypBve61Ify09IT3e91WH1RYvcvf8sADK3zzSfYqEYyCzfHcNgPapuBIHCpPRg6Oqf7eWY9gmvd7gNKsZ+XkWP+vh/u+wYmC8DjzEb4/2v6D6YR7uQmMhAwoVv9D0lbsJfYfysS+M0vUZjY26F5yv9PxMeJyVPy1g8sHw7wljaZ7+rz19n5PtF1F4ZkVxis+qOniFNLOCPeFGIhFYJcj30G8mDh7H3pKPFjQSdDP5iPYM5QQJirB4C95lY60fh6wzzCsfWEvrA/ehrqH+u9UHOfKL9B/h/7oYG4q5dDuosaHQ+o0KQ+vr+yak/d1COEXBL2Yd/cHMPAd8u6BI53tZIyA3f/Mu3+xl6OEL8TLvYhWnUZ0aV12FmpUdnRM6k/foIeg8OzWqnD0MB+X+T/rGw6u8QENhQqZmbP3DqZMwhmh20x4cYl1/KIHXjI75owxeWc3PdihDYgQN2bvY5P6q4d3k/6sVx2ZKkUmLtf29Yv3H98Mw1Cr9rkCAfEw7aYagct392WMxLtrFnkXD1mwD8Y6OuwZ0724DdycuD1obb46mNZFNIpmpuWZf19j64/Oz5RhnRlS4eS2OvhC4cp3L7Qx7xiBhCDDvY2OGkGDRws/B9gLYPUXQ4sO8yyd88YJRg/apJYqHUWaTLX+/tLDElRgsunn+0DOeva6CtSFLUlwuJeT++h1AhDi0YRtxsZ9/DroGkyHhsz2pXe/CPNkoX251EI+T6BBZeSrdOuEcfEBsX7Y9l+i7p1iciHPlJYvll1xnlJ00Y0GDxkmMf8Z2T9dhaC63DG5vrVcteMhpLB/uCNrYcxGB7+/DmyaV0P37uIe+UP/GX8qD4hE5k/4/yJTtOZ44FejXChRIZj4KYZUlwbQTmqUMGMir8Y2P13xEa/1ui73De//J3GmviN4uMr+Fd4yyi7r9vRP/sTyjYbTwYc3/09baoXEcNOz3q/fCOjHw1e9qKQAw964/fnYe733yfqthHCbF9pDtnaac7xp7/4d2pV35xXfT1+j+wQZ/ft71r9FJ/9/fHGWCD2T9LaGZyDYbHr2lKzye9auNuhKw4Xg4DyCX+hF+MxjafTiXfDWWDB9ww+4pdm1cI/XsBE54OH3Vy8MIR7CXJ1U0o0NMgQIwAAAAAAEJMAAAAAFh4iHwFw0/pi8xkIXK2LsgjMXJVsJkhai7O24wBltBsEhP/LCPJQhjCfWN/GGvk90yMsfXisrB8vv01YiGyK8uIxbQwy3uO6ZPmfTyft6ioWHS/Yg7JT+EOqjgr2l78YZOwESyMsnGjfyUxPbDqkX05P3fCNq6E3LU8PT/CE4wRxMt/Oqm5E+T9fCEaPHSJDH8XCk+Eh3qL2b3ESa4zzFM9Hz3zZk+lvh1fNb1f2+36H3dykHvfL6q4d3FV9iu/HRg9eWX8OK7ia1qt3rzQvubuP++TdE+6TfVd6hmi0l8n9pnRtSmgG+rzPOk+0xqFIFFN87QB4HD2TzHILz08z1ztGSqT08k5y3lstGkywh7iXC2Bj/VFwxH0kRhibGgcokOYk1UEQtBr+wsn/erMn0t4iUglHuYuPNP1Dtddi8EZtX0yrCRF7i/CS+ipwnIY73l8nuWm3ovH4GVHm8Rbjcb/8A1/wJXfYpPtn2hdwdyFiwNaPUo98noum4IMbD3wq9PpA0sSvQF8x/H29fy/J6ppY36RULhk+MG/CjkLuMj71LVVEL9P8T9UiMMv9dPw9boTBFqGkUr1DcTFfCVk15OlfQLR10OtJD8R9noysIO6M5f1SK/3C+eye1LdjPlU0hhNr+6x83bSVEwk9T3N8ISjwd++/qmxmPayRQ/hEkBWrr/3Tazxo2futDImvyoPjVQaW8bl5IffVp+Gc9k+vSCVaCIv8JscpJMGEgACXIB9c8oOhZ7dfYL2Rni4Q+e9Llte1Izc9dP+QvcmbE50QmQFxoA+qUXjU58Hsl7lge5r+08TGTzqhghb5LMwFnThGp5S9h3dpOfch1dPW4R9NZJGINCJnvXcsge/kuC3pl/jvHheWOwlwpyOufw5u8/v317k5THS4/G27+K4yDAlE/vXiuQ6s4QBdWQVxnjgX43CGkfxuAW8dkV4ayy/W4j33fxHnpsxtoroZpPgwjwymovLl77vrxvaRamDBmEB333r6Xk9a7Gcsa/gm2Bpflp9wQ5ZK5P++1eIlv8ugjrk970/QmRQcX3z9bPX7Lvz19FwzxHqaHitkjZKff3kV8MO+NV3EbgSbwxuB85fLACFKNFPoECYAAAAAABCTAAAAABYeJAvBgO1tAwxGCanXCHuQuoJXWstox2uXNN8Ei3Gdfau1kl+ENx6yXTM9/J75Nj4dv9O8q4qm+lzZXjoxEu/WVxfLm1xkYb/h3mIdL+EvcS2tLZq2oz754Y3KAzRKcIgP35Yfv8X4ewO3U2QqvjKmTg6q+fy9dvWT3tcf4akrjwzF0BwyUeEcsDAcfCp03j/vYID7f9lTyYhiReNiraH9i0hsO7plcbk4nWdc1clDc1oD7xa2nvKiXhxOpX2fHwrj37zYRJk3VduV7NvZHYzf6uH0+hL4bT6O6x/Dq4DiAtDfRbbyLh1d9Fnr2sn026ivGCR+NYD31dDm3b0eVf1kfIWqLNsb5Et/DSmVl/DiTwvovfy5ISwxK7+TyBN+djKSqP0WpHIT+yLCEzMMJWn4P2t3jgnCaFeVRxUYqHMdxPkTlXjSYLX1denvKUZrXlyZREwwGCNtv2H0hP8Ib35JJ88ibJlXwwqxakUetU6W4vLk8C5bQAua//NJ5yNFioR6y3WD1QKgCsF2wWW+ebsmxeViab/y+8n3RUJhDffTCj5hotBhj+L05YuPjMaM+YsxJTR/vuIhPp14y9wO2mOtupZSUTvP1WHjGyhaXLCXhCMb8sQynDCeP9kTfqF1z6uIMpEs0uvYYzl4aTGm9U1Uv9O6EMRniMiY0C5D/4LL6R5rlvv97G1oIwETXH/7baX98IEvxptJnjUP/DFaF4diI3aZjhcIfTZyv5DTC6BBgRNZnmfwo7G/oZs+jrWgADQeJcX9dLY3LeV0fZd5BYmXmGHUZLry/s+kM9xkZfuRi33n8n/SjY6Jz6ZCYp81b8rEr0xlEBBGbsiHdNX+wfhD8GbLaOnGc/47+kf0y8t4z2GX+6se3Upnp6IO+bXqTVw8SSuVSJHTE9+/zFwcf67Ed37yf+yCr4f6b70T7rSHY+DXWnk1cBo/HB8uBJ3xtagwRqzmVThuThtYM8OiTLoEp5+H0Lk4R4dvRxsN7zUXs2bEHCfdLjvRcgY44ChCoNges2qIC60QcaB4h9ZEqfR7iyToP36bNA30s8knGWG+lvP7Xab5iHrWu9SQh4M+fk9P3D/GMvvAq/TkTLeun5jUn3n4ut98wx/hC0MBvgi+PQZkkLdq6v/wn5A1w6SbvGR478iAmHGD/cM3l46J+/isxrKoGS4eGd20V5V4YxpovGCuNF9f2D8vRcnyTzWOquqsC5x/T8yBjXGcJeLHjsgKQeMETGLQO8KtNEOfmV++14wHQPV1otJf2MnYYQn5rx2g85OqLfoEilwO2k+0QKY+SPe/wk9zd2Mn1e0Cy+DuGBf0wm4futtXfxnjYRM4gokMF84yOiU0Vvp8ZWJvqjdr7A0NNBknnI/uB9DTrBs7yCZ873hsnv7P3on3Xgl8uG3AZMc+IlNj3ijNTkk2W+iVq4y3aT8bPT+5kgJYWvoJeh5gSOrrh3UFsdDoNkaaWghuUJhpDkNf2cN3F8bLD3xLtzZjV/BZzCw6MHhxPvGREeiLr2EKu5pHcZk//FYgn7/h/zIiHtinf10f077WVw7t3+tE9e8b4LuGpIAClQXHv3e42My/ovYmid4/OsvwRSq7foKuWmM5tr19v9CZxAV/vXEE/XwlSDC07RvfJ/1Z67L4b3+bc/CedE33wjzY9c/uH7Js8Rp5ymt1IVWgk3paCfZx1/3kX8TzU1x+ignt+wrd+919Fxe4VHfoZvBJVahE71xfhpAI14PA4jcRJmVZ6/ZYvivN5gwK/hOaHrwQSjSZWBAoAAAAAAAQkwAAAAAWHiYE8DCNsdzaCDB7CENEhMclaFOL6MMrr9DPtC+ZaL4R7nItlJo5/iDvUErUP0SHvUITwukGU7J5aN5OnsFUPh9JoBJxi5qWpvGi4eI93wsTy89ajpDNiQEX5XJ7MY8TM+9K46ftRlF5XM+u++4yzPDnWEH3bt94ek/IqIO1siT/dsZ0LmLixH2m7jIjrffjcJ+BzyDwV07DGNg8FwYDgiafkl6WPIWofv83YMPZbxfWMvMRuvx/e8ONx3HRg93jIbkv3TT90x5Mgd9MXvfxnyiEIHCvOMWfrRPh6Wk7BBepbNNj3k/1sZrPRNXXIdAkqB4jLxEZkbVVAmIJXH4LNec78IVGMdcBfGejccJj0hPI0NDtX61WGu8G8sg/CFWLuS8J2pce96V1fqEvcfMbzHW38Z5FoTuOn60KK4RL/5L8VrMyhY5WoTaBfwwKuTitDhHi9Gi/xXh5+qPfoT8KO2TnJTF2nu3v2IpX8rFpVttMkcXZi+NkJGItxKJ8aJpinbwPS3/DzUP9v+MhDynS+V61Me+Iyf0MGcWGkm28Rx9lvlqlcaOzZUZxWVfGAUY9Mkh/L3Fe6/wUad7bu9V1erm9GD+ffso8ZJEvev3/CE4gLsDPBkkl+ky535++HOE/KkmprJWu9Ynv3BFveqaLYUm60u0REta5cvpaGV5lW3PNNOoyJDwnYvd2GexPfzsXs3kVBqQoJL++2CuKC+/lyv3u3IJV3E+pd37+gpvOkx8rKOaO5gwFSEIq3+M95yHYh1QC56HUWjRMjysGRahDySs7h/lLuTYnvefwvzI+FsNoWihtxMgq99+mixdbvnLgOV8tJ5ko1GQU7+7h5mwuQwF7LcH/zQiWM/Ig3wcazyLX96VE8kbfOYu+8whYYUbG/RqHPFyDro+S9hdrSD+tQkO80L+m2ILyUUmX2rfFfT8n93QzEqiIWLwYfzRCrUuiFqY0EmjTxW3wrWPq+McHlgm2ZmlDl6/oUOtb1dGV5R/UP7km2DnnVsfhDQ9mlheeIcrj+j1HQ0hTDFxtfH4AguhLGSGxd/3k/e2wpwJ/YH2cGp+MLCiVzAW3Xa/8od3P+0k3VIJ3NJYzv3foMymuLdCCq/zyO4+A/s/3PtAgyQwOP1z0itBnWHbWEa7w07jFIgPrsL8ntauNqwg/F1Rd/ES0vR+zRtP+gHyf7tjI6WHYGCNh60bFLt9HSWN8P1pKhmnh4S7P6Hfx1BmBsNUAPvTINSIjTyKBz/JiX+g9pP+8ZD9w3CArxZ65PT0PlOiZ6Ljt/ZdHyqwqKuKJ7/Ye1qS/+aQ4fkGHCdy7pPXr9Ppap3Q+/gsumW7fGZd/k9EpYkIWBwSNLLs/395PW23G1ptB9Z32vQ0niO/96UasbT6+ujvbBLd+ltSRcbHZiDsx6LjInFksB1TTM1ODchOuk62B+v7LXh73qQcuG2dUSXEb5VCoL/f1whzczI2Bn8wgOOBjDmhmg9cNDY2upwhYnZAqA2pkuen5PpDY6IE1HhpfPt76ZCeL9Fpm7hr7Pye+ZCUH/fMSjHrKa6C7Cyfb+EZxAfNFz5v6uu4Je7uEGBu9G3dvBTCT0pTIkMQ9lUHuB/tDSVtMV9H5PVMbsbe/mq60e3PHX8m/GQPr8N/hZGT0KjWpHt/yjmrxcOIuH8Na8WiO0HGvrL8ZDi2nmiP1Zj3W+LaxhxxI/CkPoe/rj6Uv4bi0ux9gOFLYp4xptiqLEuMVY3Wrk96R8VG6X3Js8LkSBZf31wf0YVdhb3w67jX+ga4S3u+bfE3iA1YgihN80/jaQ29BsHCa6ajH2IXbQ8hQlOrH2VPWhS1KxERsbvFZ6/43jpRmDuUzNFbFQMJtw2TiP9crOW6+Xw4H06G4a3p/X7WuJ4cx59gTD5Tb4Z4v34cQTl8KTsfCi0bfv9k/TfBRz0nuMjE2pNJhHrcxZ73Z9RnlIjCRBF5n+1Tx94S8ve2rwo0OIwnHsZ7B8dLh6VbU+igTadDIvR/COxRo5Z8OxTP3GOT0fuhOP+UT8KYR4L9fSJcoJtnvXUNh2TwrE4sHyqG6yRTRN1Hm+BJ+XxlgytHbtEBcDwHeiVGuhLzdoPvtJdjWgwVTiwt+Oiz7P4bZscIPeINqHkvvRR3v5cnz8dy0KSxpr95PrLsfyktqaJm/2Ny469o8Wautvz53r9A/wVaP54FVDUTHjmRmU8Q2LWkEOCJsDd2xDoIDqXSuRdyV/GU1RQlXXU6+9678Pt9vC8n/ajOY8r+N5ciXWW6vwo03SrWUHNgP4Ea+Lk/VvH/vGCNi4HeQdFrggmCcZGhQ+a6GQXw1BBr0BdgMM8fkBAFpcGgea8vV3wj3e539p/e2vS4RlUrR0kRYfQ4nwk4OBgIvR3nNuIn/tB2sFIgbZet19SASn2s24f0PVF/rlGeVTjI4l2Lu5Rg/Qer3Je0fxkqhjQXir1qcWntgrP+Qn7aaTvGIf8TeX+oTFdcJccIWbOfglu73+u3XBBDbXCwU/RxsEBmvCulKY8SEm0y/stLQmuEpp1Sdf4x2IP/Um64r3hlotuT9bw9x67mMvBC2uyqLhwS/rHDrN6l5r48vjvPENRIfD5SPRTEbp9Dce89mvg2HIYD58160+3+PgSbZ1bf/77tNdhDMEY4ldPKiYeXj9nxweH8iST+/G8hody+VTpn/nMa0v78ZfvmEcymi06hLhHckHso+7EnxHCvd16/r+mWulv4L9z/TfXt9NcVGiTvYIl4+J5+Px1l+hJtcSK7FZuhzkI1Qr+bGBIG+Jfns9kz60Cvfv5cxaJR6bIMCYL6XlY2ft64Rjh9+U21USXm4RtMqpebfsK7b47Tr9cI8JULm4xkPJCwwK4+/o5XjI/vCN3nXsZftve7t7uuK8eGD3iXeOnwxX5z6tjaDLgoi9p1EsaNo2tXaBJt3aqL8duHrlsfTp+mI4Ip4TwsfBVxzkvSnYYsrBFMHwtVDVCAxrDzCzrr7KwOaGHLCofrm1r4nD2kGL1HqB3fKKUVyeCj+t4jgkw7BECiPXbBNem99LFk+9LD+PzmFn9KbK+l7woHbgcAUK0RzZ0Ucx47Gg3dcHgH45J8cT/nGjIzl3pjeEkNRn+ahuaGUPU+JJ9/h/mzPpwwuAAD3XQfzy1Yn7zIMVxTkRSooclxObhHy5wsjIFkyWkx/j4ccHoHhn731wxFQHDsVr16/pT9wQaI6/tx1y8Pe5V849BdV/1G4Q79V9Su8bcogObsP4S/ePKkVFv7qNMYIECogAAAAABCTAAAAABYeKATzwjgtO4rArHsuBqHK1HHxtTcI+1z4UECmhTDJ76NCD4R2vD8NMEmL2rubgRrq7XNdjEv1CPHatW+fif2BD4/UyNoA5COfmUwYISMOhGcLG9wjGbm2RCEN6HXuHcz118XrIx2MlGBC9PmrqttxBGCJ7CWBrn/9ePgTt0hv1TVy0vIMu3Vcuz86L8ZzNFudd4n1P8X6ef72HaHC78ZSTMTcvIrLlFQULVQjfgeSbIGP9D/XKscnR6jOejxg++/LFNFjNRhikUX//TesNvvcRIe02BBxfaCtltGR7Txfw5gJAMJXGr1gABf47xg2LQWLUiw47Uv2O+2kYFUub3d77nxnd7fyBuPiIKupBE9jIdShOpgTQwG1h9tltYi2/8ZoRpzgRPfdUYV3OeXVW5NLuYkbEXxyI+LJ+3qNu7P9WAd1wmURxVqjKEEvzxjCPAhegO7lwIKo63Pa/T6VxteAAOvwRlIInW3M5oAGj7YoXYvInGluXPv8A+rrF+w2fxfRTM3cJNtSyxuL7KLqlqL5MJmpCIQFLFc3jyH4SmSGFccbv+OvN78f38dRepupW6Lzt6oupWT4e9ID/THfN1Y+n6rBN3doPWL776BPefO43mx8ZHBp4B0VhmPFs/kMb5VmbiWE7F8cnr9DO4NQQvD3SA72T7ZToEV4MCPAtYRIYTHBKx1sXJ7bkRIimVqFdX7Onb3xHuYgq8Y/udXGBkxYreKWP4Jre+/UqeXS0KvvS8n3rhSOSvDeKaznJVhB2Mewk+0/GU1uXhLKHVYw4U5LKMPzp940TdYQWo3io6Dh8I85Bz2cS+RtY+/Nv3c7SwVw81Ck0b4Lx4QuhS4jxWWrx1L71dwfXAUCTjOX6fKx8HdQLE5dHohyjlZ01YiNjPlScd30r7M+NIPjYyfKBCkfysfVAsCXf/LZdGxw3r+z3cHgnftxgTnWKD6v4oI82e68eO7xHNz5W+QoT0UeucymzkMPEbvf7+JJd8lFCV5837putjLumK1NxBO83p1+xxXKkE7+BA4tLXWEW1uIhPG8qhv3lhsqZu+Y+lqUzx4z/r6/oXvDzF627hmFOJomdG8adZCfIQiZUaYme3Aerr37WSN6rzXqNAAy1b/nIFnvWlgBYNnpoOI2XDY/tdsEc6GAqnd1/n90Ql3/Gd0rd30xlwNZxpwZUN71pKtGREmZ5iZsMyVJw/Ax2fkx/lMaWw/WmSw7gI5vIXCoIkkB2IK4kZfzGmD8ZdTSpp5k+3VxNNiTVNxiG1oIHf3yToQejww10N4GlS+O6h7Vw+0M+29Fm27+6XAzlGV/p0uMpogmqRQMi/GMRnbxT+c5JsTfnhwvyIJHHaPQQF6n8Za86cNIn3fTpNOqT5/U9/5EfxeCX4HfkkKOBaQLWWbraujMrSaaV4bc0wU/H+HV/FObg/Ujzqr1G2t7rev+EHB1MdgeHV/S/gn7KeKRB8Ar0/2wQeoJt1nKMXNqX04w7TIdiD12u+T9pJsbfj5g1cHUYAchNHgwKttRIUtHFdKSAn/x9zWg/SKhk/XxuvhjvPGHsfVrJmMs7eqNqqCAW3r9gN2K1xtEyt8tDen167xAQ1Ci2Wv1/oFvUbSwZ4h6A/1ik8U3DXctWU80sH83oFN4eawDtIi7aLMhf4z9aRoXpKtOiv8b8RNhEp7F2PCRXi73PGAtacJb/CO4vAleUMle5AvoU0d3id3kFBuDdHw0cjLjqEdx82YTuH+X+PmN27YXo6buLxoYhTc1PvqWDYvqcMkqnWOn69jf7teO8Nu+6+9l8EN34vgl34Ju7mdkNfBhvSgO4Qa06+hWe7UKXMkfTI+WoOyieEqL2/O0Pu/xh4XaMz9w06y37ipo+5UHfjOrbvLlprv9DfGRoUSEkW8jSZ0CIvyWKGhUzXCkYAAJRxHth7KYQPxvkfFt+MBAKoUSjjCf1oak0ORaL+6sZw/svqQ0FyTGQ2L6eevIUXPm5vhTKgIL92/uYv+cN+UEh+fS8EC58Zx8UEitr/E6qtK7Twn4f6lJbJEx2Gcg/VAKw5xnjwzhC2smNDo+OH9NXC3srkDVXk/SpQ9m+P/z8jfA23EJGqO9W//Yb/46/5P6FSwxGyySMp8SS1XmG00l6C4DYXje0ZLGxk6/ou31+/y60QF/MUDiJWCP+BKF73W1/J7LkqEOtjMkj+iaxYTOM6Krfwj7BBnNqprVKafS0EAf4fkyNDTotgpEWY0aI0CBu3gsHVOnm7vEf6/mU75RlgNYUfEBXNGK6cJsjU+6S8eDJfMLVCXnDwCYNd25MZMGDly+wqBHV4VBhjwTPAbzDW/nKWhYuKwIbvCEZBeWAlWEXlyDgS39fy/StgcOUWrRRA99jLkaGf2vXeDbqR5i48StbBGzN+qh9T32PZ4aVuEZRWGWtvWb+Oxo3AWwSqJEY+DwHq1lmFou/YJ+r7aetf7CPu9JK8910CDyLsYcT/Zr35VZ/+de6tf0F7CF+frpdv3tFxsFvyf8GTgflFvyIOY8waW8eQLtCK4SQ4MFqVyw7Nev7H8Z14QVJKxwiQhsjSHQS1GyHqOnc0cGlrQIdt+NpF3rg2pEIoLFOub+hg/ZJELqbjWjT4ootRyCC0+Cp3pw7qLjLoaD/xlyzFYf5MJ0N3Yw8VVCGeGA7nHZ3B1cVY1EpWe/GQSNmb6r5mbKElx7CW/jQAnUhAmY1nHrqICGOnzT0Om+liIKMI7vYU5GXe337Ll6CPqnnSHQ6uEtM6hTpy5OkL8S5u46YZ8KX41KnV4bdlIbcdF1Nhgt1O242xSnCOljVqFNegfd7nOIFn97nh9BGF4rPrwhc0cBGU+AmV+B/NxM8przEt+kCjgSHB9f3GagncTi6iOGyf0uCyPIPGRAcZHTooZYrwaMU0+qFge3WOsrH0LVQJ1SI7tak8ZkAAjSYcJJUNvBu+3+mTDfb5XnOtAlSz+isWGBWUVscO+N0WB6JTeYkTegO4sBR30GqLwOtJ4pry+bKbLb4xX4QVtHo3qXeUfHdDWvoHoV6QmCZpeLZKu4W+/i4wd+ju+7Gm8WOpvdvp5x9cfrfOz7+HY2IT/KaWeN45f/0Jvmu/Xjd4aaZfJ+Gh+35nztL7RT6XdY3JFuUj3+ljUMoHxxlo+/NfQXrcbWnrWGXEtPEw4QvfCcsl+wvcZYf6fCIuFUcx6i28AHNcCbVkI0mCM/YzsCs3n3w3EhuIhBx/18bN8OUV3L+Xqh87BAO8AQkceQHIhuY9euB4tP+vjNfsvx9YSlwX8Agbw50dZERmfCF7x8mHw5rxoKPggjwvFIcaIhfHy84AEwPaNCF7AViBCmfkAAuv9gpP27cLVxny24sfjyQ/DTC19nwxwQ5gS2oCC136nvT/ris8OHJN3tcIXffcqSiT1xd9EMnSsaP9go+Y1HR0Zji3a2T/XGbBRltjkGl7Ou736LBEh+xKfL/H9BrASh0Ev7G6LOc7mdHoJD0frwbdg8jRYitLKID6+v6G6BLrqjN+erV3kN8dXie2+OEoORcbJfWz/k/7w9D0GkquN+mhlBbHASt33cls3jNPHjVHsasPp7+HfeMGO46yJ9dWHS/2On58+3v+g79i+bOHlIIgd82D5znY/pfGa691vNaPHpe/hulIQa9rxgriObwze4vcrewVZmeWhxAb3sL8KXzGe2/LeXOY2uFLyhgJk7EN44yJ94asqhin7SVDeGkEosEzAXGAI68Ebd/6qB/B3ojj09Yqw5L+13Dvw6iQMW94djxg3Xr+37BNPc94ruOhkZSv0akZ0BcyUy9F2WT3vx9SX7h/h9ljaQ2S06XhtSa4vG2z+64riq1DK7n8bTNIrOOBB8j/H/+LhC0PKxr0isTna/+J6oUHnMJ8d5mWX4wO9FieOvvfvv4jL65FK9aQZhIz+xrDr7ffBZGDl7K057/Mtg9LVIhOl2S+Ocd8PeQyQ12NgkXOqrP+HFssu/c6qx3HjNggI4SYOMJuUyzKRlMdy4Wvty/uvZeGSfciVghjJtQyg/dG7EzoKE0/6+EJUioEmuNmPXiMM0JwzkNy7zsDokILE7EaNrQ5PXfPX340U5WHxXlEEdGT4nl1euS4w3J5N3IaEmDHcMpriMRBLwXeZG1k2pxCxMbi+CONiBKBF9nwW36feEFwqvolDRvME8v//7n5MfJPPTHdy6/d9/iNv4+mT8bS4aSSflh8zC/1cKNPEYECwAAAAAABCTAAAAABYeKgXywpW0Fo71IfPw+JbLouGXJDGFsCArSYdWokd+s+4cFOXCQyCBaihSh1583kJVE4JI4GvXBAagKTaXCOwmiRNNAYUfGfxxGYRDMtxvwhzmKSJj+rKICDsnw1ERGvqFz1F82YiQEohDSSf+4zw/dxHRjeHKYy8yNFR/hpC3+skZak3MbeP73ffeoeypZRdhis+2m+HG7F9r+KtMU+euY4Igi5ccnrrjMJ5DcZBAbCV5ZRdAUUyoOpv5BXu7NCg+D8IckkFaxkf57XWp4PxBtRqoWlq05QbBgh0VyN8J940GCpVGgRbggD4zOICPlslWoWjJsq2E9WMmpX76fYv26GMineG68ZbaN+RGx8+m3Cs8kp0hpbmvJ9tYgUHaydYazWVZozs5ujtTr41eS/s/jL181w/S4StXkd6Hv5YcjXY+fCf5G7vbBN3ixNZE2Mo/xmg7a2vQMLWF42kMO4VoLN+DM6WpCw/Zw1eofuhMWD49UKCmzbD/nPjnNgV9vjDvlfQe34vl5R2qZ5q4v3eMNXEEN8dw2pXKh7CXTyFrm2f4dql0N4YD93/0r0h8aO/lUjYITXvk/nfFyCE7cvf8I8e5vf2X4ySImGBO/ANbttgn4L7rjBCPRgchsWhv1YQJUBoGqxnT7tYfMXDnwi1o7dlXMk1ghBAfGkfNeE2QK0tBJ/Gxg+M/bsH9lYbT74ehyfg6ajZMeRK/r9vDPNw8rXJ+BH9K1IUPKQFHplS3JNbSaPJ3+20RsRyeqv8bXkjoPUxTrwdLRJsbHev9i8ZvouBvVvKedTz+P/DS1/sQRmAag95eF5lsZTHmU1+uFxWbp4oSLx9D+9/CkeNNV1afY5674Y8bun8vIzTd+0v99OZJE/G7MdQNUMS6md8tG+REv2XfOEIyOt5q9AIP3/kq7j7/uq1fH+3ngYQMfEkMgiWKBeCBWkhYPLUbQ2qQSxnvT5P9RMFWeszEmf9UXt/GXf3aw7hvKGDe54LYhTLeX8bRy7CsaLwgvSKRCaud1Y0PsC4TcdmZry2IX94cXU1duIycKeEL7RH3v6A9w03gO3mN3Y2fHUzxY8bcFlDQqNyjoZ4l5exQnDOTgqx7SsED2tHjkD5O5PMLVWU/Xsvu8Ma4yee7P9PUPe7e739+y/GZs88lxlWghwl9mgilc6t8byffuDQyezzJQ1RnWaIw7PkpfkMfkM78FN+Xt7d2kHWFP/BZTmUr3OU85B1k/NyxvjU5XLlvKbXk0EZ+NVWnW5LK/M/QXb6hTr3cg7f2iHt0dJRLo4gbeSTrSY+NyMx+16jHdcYqCkw2YQKmjmFdxDCYkTQA9FdvNxjvX9gbLxttDVwTP1ICCgh8SyY3S9Nxi57SaxM+OEtdiY6c4V8ZzaMiCwkktOmSkE2U9r4Xv2+Ebh13hPt9h4gXQUBZVGY+Tj9fOc6+4e72IInC+edoCBrjfvvrR/7Y30rnlLmeTUidVG2W+vr/GW/5TkCJ7AzMNARCrVcHe/KPK5swW5ZXNPZlf/H8YH2MhiuhrpaR7nQv+FOMh/no6fgH/VBED154AD2VxuCdQ3R5u2YfJ+32NnBArgGHqQw30jvDsYzK07cP6YQOA+18Gv+epVKUvoQyGAv2lhiJfb8UHLcmBjnw77UHH+a+il9P9aggxoHg7Soo8M/E/JFeAq8opBvpWhxN312RsVPwNbWwG2gmDk/VtMb2WkxAF90tUOQ3wGZsTb7yCVg0YeLTCXQ1JJuO4RtyJW2EhtVtBS4e8Cf2Pr9rYRWdNrzdi4+CL/6un2rxshZmPik7iMcSOkfCd7jv9Q5nqv7SV0wz+RmKYL+VLhQhmtlnGwnH2HYxhx8bkGgF+aL2+txVn8w0DgpXqTN+/XcHqKwGhHxMKTbvas6vOEHevk+rvH9hZwQWC3zy2iUaQdItM/6XYR75EHQg/DuHiRdlxoQS5O7+Hfp34YRdr8Ho/pKwprwXfqoVJkEqtn4I8hjurAwVgh3qcI1okWkR2nmBRhijcIXtefU0ry+uF9Ggb4Bg8+pHrvxLXy8uMz0Ne/WvG9TvL2zd+c7nkxa6sDQv7bSG4PmSh27+OXMIojJ74d5wiY9BjSdGIT2sLUjGT2iSU+LG2H7JC8KS0VrtyJPiFMm5BbD+TU2K42K3vFkPafr1aZRrevQMZG5p4tSQZrfe8pkx5MWucMwaA2Xgsjt1j8aRc4kidDhzRxS+W9xmMjpXD4rzY448xiE/4zl/tyZ3jD7VABEntruFJ0qO+hm4O9nNOFjRxUv0h4L21I7/G6JEODrYMfHRRr0sgIGQIFXBqnCuBsyzSoHN0jBy+wX9P4yrQ1De1mNWCp+0934Z4z3MZkT89ff8giQYrp3wRyqa8y/N+NuhwS6H0Rt5o11J/hfDAZGrTrgwAMi/8r8n4/50r/0g/ARy7rn2e1LW4fcJfRuH3gOt4DG+Bt29Uf+vDHDSfTB6uWcSGYv9/YTBqmCe5aPfftJNBeFtgyLWioQme8D/Vtv+h4fjoPf1G6WEZVY6veheIj4SNjpqLpy/6W430yabMdGEa6S54/c7pu5hPX9r42L28lAf46PiPbAgePR+E353xB/Hy0GFEHjQeh/bbwj7rP19EgRF/xnGxcFpsZTGqpSIKslzvpW9VloVpfnb42lRKCirOCWQWs5VFXjC1CA9no0aWm82mhbch+fnCnC9F/jKa+tWLvM3c+g+YQhA4Os1+lmGe4v7c3cPc8nv+Mt+Q/rzGWHwygiOPjSUDe8Rjg/fHbsSqYynH4X8Lc8Jf1/ZQwqx/vWh0CY+T8JfdQx7lMrcZfQNY8zYbyKO/V1CUv3f+M3fdZCDvmsvq8bpxmmlScLQJ2UnbEO3F+TWFsvoJcE92+z2Mn2yUjjZpboDpuPA1OvDSfps7Kk/aGq0yBgZm6+gJAZxP8bIuwLJHW8fWwcOp1BGalLMPt4QBMsH5imZiaH6PjXQFwQ8Zr0a/xvcNJZ+FNJFYl4tD0rCSb/U2C9oEoNaLZoZxWVh7IbYF/gY8r0CsfxmlkN4a3eGFQDg5nx/QVCG6DgFiAgKkCgsB1MjvF7//CPkpj2CBjuJ7HbdhSfbdefXHb3exPGCHNyisuieL7vt9Mnl/YUhzkZq5PenlbjY/Y7sJPUqpM9fb+4K/NshGPPw7PDLvB7J70njddeyVDKRm1g1gg6rTy0twYvhT0O+Nt0qv35P92xsR+jv//V5bo9Awj1N3D2lDgCsTmMDbv0zVNCl/bZyfeqQUjJi/fHwIBzHwKJ0up4CITw3GrFqSK2+vYCAe+Mz/HAifANeu3CkNDoJ3a89jwmSFUKoHNKJMV2Nq5TrBiCY0NmUJacX54dpznYWHnW//jZlS8BxeEwgtj3hRZNnJsvJv8YykJquTmwN7ioMtxaBrN+2gg0nJbrMP7S/RfjeW4oCAyD9fq9BqgtCXuz9+zXh27ttopPPA6fHaE2YDtr0e41sOa+hlej/CnAFC6Y01Wfi3/nlOCvMiJNsJa9b6FznPy5axQyZTz53MupOHxfyw/VuChnidPnQEHVzQ6jKYTOFfmCB1db+bZRBveT3V8EvU/tJv8be7o0Xzd3uVg5SXeX0fpXGw/rXnwcaWjBIv5lmGPR7uWC0/7tRtQHfFmmYXK8xxbrzglFGnaFy4AFeZNJCf2g519v+FKyNu/F8KRF7A1/Js+pycccfzvObaGbyNge6HoPzL+Hxs6pTgaEjRrBNqBz1VuVENUoGEvEz9wiHZ3K/2vGWqFXmAAC6Wymnh6zvDoInwLnGMXA+pAoOiYBPxncd0LI1B5B6GPlw8igsR09rxef4JNApwYz42ghgHArTQsI0Cfar2YHGLjudk8a421WOXVtK/sBjoeq6DvStcqxoV/UHbE4oEjK+l/iby/jokcL8GEiZRQYGJybvt/k37GZUvdPf0+oUul5cTa56L/dzW4INENQLx9MXqO2kqXTT9wnNkX42IJ143OJQmcpoEP/r7cL2lpy9w4OvLEJhjnHr6TNGhsCgTneHckP8bweYaYIV747UlEniMpY9rBtfX0kJP43m2HUvN6BkWhHMYpImcNyE9WCo1MhPD9+/Wi6s/jYEOo37fyNhNaGDlEl89wgfssPs9Ha4qtC+n4d9g85U1Hpsn6oP/v8bsJ0h4svGJSf7VbehRtfGVJL1KDzV+MR2858LezjYeOj39qBdh/EiFnhjLx3GQUUUGYxoBg8CIzx+X2INQfxjFe3jeVWPGLF8Re0q1kdogKt+YzNdrTPcZIKbYcdEBL1YJt333qCDH0S8xmECvxqacftNeFNQ4DesQa2HYL4JTx8J/OsH9s4xeJEzfrfQfmDAs4+jHdU0ASG0pc/nQ71Z//iY3vb35/42l9546YRds4Zd1/krX6A/wjDiABvCTbN3adDewpfu9OXHqtlINPW/GykHyStae6fNWGE9f8bgHQ4yGCcMDYF/YdiFjBI2M/WgRV+nxY3LnSQjl4nMelbjU5fjqc+WurWbhGTt79O98flzGUNC2Kj6f4iJG2g9mXGF/7XWQ9bGX48Z6RuXlhWjQ+XhX2wwi+a0NukQ567L/hSqjWivj4jV2GzeMHgPwRv46f/i+Hr2kqlRYfkMZVMhCdK6/82IhKPAYK9b0wT3e7x1dl8ZSrzYbOfOk+N7xyDfffw6iMJDawBwv9S7+N2yqND5/Phgg9pVRIXo/GRo9+wMOu13BgIwKDbJ/7Qb4Ju85qGlcqc+Hr+njZjflf7IvCNuAZEvzAu7G5WTjO+/LSO346J33w7hpI7/WWmu+u1hcQvd16M4S51EYBc64rjfp5TnuOiccOY6DwFeny1pcb0cvc+XrjQiN/h2qPxHDflzXr5X2NjqcibF6kZGhgPItJXaliv7tHgwxHCOdgoSvly+E1hEMLyT8Nw07VijDUuguvqN5sMu/axvBFe4zjLatAw35e7dfr5CywgGadmOevrWuHs4mHbRt/qv5WIaj8icQJBRfl9OzcsIPg1hFxq0j29l4TvLBQ7cwQie82VTMT4e+cVKxpxqxzu8LbnUZWCnp1CYPRcVzYZSaeJ5YPghhpLuxvDHp5cdev2iRoX35YaokX5e8kNcKZhKbbHyiL1jQjvDAcdOFfDfc8qhnYqzwqo05UgQLgAAAAAAEJMAAAAAFh4sBfCcdobg6L2giF9oIhd3i42tQrGVaQUsopYIBVl1YUXKYV01gQFyiifwe6fwUb9w6/ta3UFG1GGgNz+CkM8J+1zIBAX+EdhI+BB7nONWKiGyLdKEbZ6ZBM7kt3qEI8PLjPuG7rFsZdYdUiZ8YnQle+9sEDpSncuHwrbgs5Obj5CWxnhTyyDTAbyGcdCGI3jvEI0Jb+oLDU5vb4yEr13eNkFXqkapkXU8zyC3/DWm7XGVIN5tm+/7kl93d3siI5oVpj9DF3V2QP+aOXj+MQI172Y2Yv9p7fytoZPtO+IzoewX91PsEdtQ62+7KovotywYPoiIgNJRmI0X4f8UWFMRLGlMhppuiLSYRJXlFh1f/CQ91RVxBX9e3CMK47lXKk8V5TGGkhXk/1xmEP3IOOVhbkHmCdH/oVi+M9K6qEe/3OkfGjfbcgRuYN+OdINgifelplDAyfI7Lju5auCAL3/4DvaAaVW6/hSwTIzV/0eFBxCVoGChSv6Mk4a9FJo0DDnROEFNL2GblfGcIevjZVnzAqtsUxAHMbiNHtqC2wzGhQAEgj3F8zcMFOlcTVuFfchvr54v0H+H44g6/rmTWyF+WORuGnrDMErg6DE08dTV7Ne+L7XPg2yHDu04hxpTcfnB6SoFtw0u8/T2TWT0yohWgRXfcN6Q/pS5Hl13e3U9fp/Q3755TmMV9uOsa/0q7BTyovzovu+T+tMZcbaAAkJ4wK5ytBrlr7ZBI4VLzpZwgD5jQEj7HCjxnGTYpGwbYKq1dcJGyki9YZX5LHtFdlrDhxAqusex2HK72CA9201hrisfFwYo7nsb9a/CHfxjzfEll4LKSenu/SA0RY/3aLSNaPpaXBVfj1h5PMbn42GAz2F9fGQ5CAry25SpFJb6fyBsgfb/Nn1/H70IPyteaNXwhScQ7wSYiGn2rQLcuXpmh16Pc/21SVzpr8WQLpr1NPrYe+NHtxz7vOiX6LtLEyBAxGDTQ/qBNo4ACThHQ/pyLioDWwAMcFvc6Gdjbpi5o79/GX9O+7zr01kVrlUjVsdUaGiqzytM95fF9RlI7jK9G9wRSbs0yrdvWi5Xg0cd2hzXZFlyH63dfyb3WMpuX3ytdy99ChjtPjQmdw7mWKzljMsBok687XjqYav9M+r1xnrq/Livv4SuX9PCuWcnxNuWK6pkIchnqN2q4nTJQBoAcvesgAfPOcHy4FUvHLpdNOT/XDemplWv6VLUnCVv3yequWN41lnlNDnHxkiFGLnGGS/yslwc5i3t7dQ/WtmiZEHBjyKg6bj6Ai71dd4DGLzsv6C+Mx04UDrGHGmsJ3AsknPffwNJEQEOpHqXH/Knnn24W8bWAGJkJRofhLky0s9ErBwH5EMN9fsLpmoeKs+xZQtpBTDtRwQB3mPcfTiH8Hz3Ica4e9OG9diJ6Waic3R28evHP06+C/zpvRvs/0+mN51HlYA7YlAY/ULo9ds9sf2sCB0vbIlxRoZq0Wb5X+nXhS6D6Cbq80bv9yy873yeeS+FO4wfxOnRswP9QSvrE3fgmfN/I5iqQdflsuxtMl7Vw7/fwEJ7nTtOjDqp78P/9VUfBtdpIfnLrTC3/A8BaRBJHgNxFZHS5AkOINFJ/Oko2l+NrWtIIP6huE7jvs/ZAzfZ6S7/4lLZPt3wQRkcS0CxwSwFfY3sDt76wHP9f/jOFHCPD50rCB3EqXfxgV0AvGyJ9Y02pBkq6as/WsU97G7CXXJjkE//GR4uCCQ9rY3uFVT9Beo3Ab5H1OFtEVo3vM5SNMSVGhabu1CZj5getBIvP1/YL2NgRtd336m7Nl2/b3+A8VpTypg6u+5N3ZBrT23qA/3ETJ40iP2Esqs9oPygaVr+wWzo+4pLZHulkkw/G8YczHAthiajmuHlPbggKDucId6a1jvQaot+nj68UKJF0lJ9eXTrckMNohmgVP4ytmVYJsuBaF1cMOiNv1uL3xrcEN73risImLvNfD1YQEBI9D/9v/C3rE/4c6Wv7wtDuqP2g9DkN2fVgN8cSmyyQ1t/RXuHvdZlXjTvaIh5EFjwPApG+el/2S2J++r7hHgXP8APtPsW9vvAOn4ftqv1v5+k+Ho/bm/N3KA/9rY2V/cOP/DqgF29jpvXrvWMO+oYobxnHTwc1F5Jq4dS7L+UF3X6Cf8df56+Plx34YvXYQ7lSXPFv3+Nh5JY9M7xIDvSzFGg71tPB3Jl0EdHDN55hBw5BXRIYtJrrRTCFik/1xnzonhKBUeKsOTcPToZkwsj3ajMy4n9YZ4s9TuwMkS+tGE35AMO9yer+MkDlQVnoGZCtGDpEXAvDRSht3vbhvc5J/tYUr9ZJm/GP1K4htMEFAg1C4IBVD6XApNDA7evWiicJ3dM/BuHVa0TDxFPxvgSL4DfuRgHChXB8HNW5OeHaEJWnSrX/SGzVxsGghpevhtej1IeKgl08gv7BFCeo33tbyeMNRmpbIGsWw/YXxuXz8bHYwIAnv2u7W2voNgWnajY4ed6cEfsF+C6eHoJvrX4yqPdALvUP/T9wOz9YeprraQNg9tB0rQL706OE707cfkrrobQuxW4VGH+g6Nh+auUlMy6RErTLZ6+6A/xkdMeWxsI6OTZsWzlYdwQaIOPj18bSrt7Ew86mUvmHJaQTVuJ2NQci/K4ceEGCvZf43jYPIR8f2b66B9LIBQHYILgQKSLMEFUyGMqga7iuLr7OT1/G+Y+fFX15cKubhkb0bvxgp+QchqK/s/T/H0SSTwR+GjbH9fk3EjltOKWI+4tRW8tDojEVDuHnefTkoLw8rNmFy91/ZSE+0S8EF++VFl4TNEzv7fcKV4/cQJFY7+OFw9rB8H/adMRtr6+n8bCM5DKf2CLse0nvAfROZhqXax4+qsx5YL9gfJ9fjeNh3GSYrQoHHehwQDW/gLb6gO/SVjNrecr7Kqc1YfgPumBPeX0a/jdiXFrMN/ktmftUve58DUk9K736fLqdxsKt9/j/nysyeVZpIDwx/0XtTB3f6i8kWChxCGPxtIgXfiDXP3oOP00t0X6DWS9vPvoCC3DgopxwDSwfgr+wtt4QoVRaOAi6X91iFcj/DoXeoJitYZ1IvDsJnD+EvVqjheeWv9avyf656/05PpPsbQ+g0raLg6mHlGprbjV1YLFIiP30uOX9N6VRkEWxrOuN7HzAt6pvhr6BOlqi9wXR36bMS/DaxYcZTxb4+9xnjxaNpMK5u4b+8Af06Z4r/9mMXsjdq6G24idWljPKCA8NpHK0xgH0YDLO2sKE8oXH+T67ob2zx82jqerS2u/WnBwmMmNUNPBZ//G3iC1QGEHDaOH61WHceRPrDwvJhHBdMzwOtuFPmaVsBI35/t5X55SiPjYmFiJs3CML2APl+/BYgndqf+l7H/kmtAexmQGbEe7sUpsQEmw3b+o4gcH9ja10CXuCA+1fHCbxVwlTvfDlpjh3qKX1xelG30f+thGnhL0529926WhvXx7THHTR7fqlXRf8Ix+VebH977je6hsfJt7kgajurSqrdF3PlMeyk9q/Gxm8h6V1iW+WcXmvmAptw2rWffdX+0gvcZ7ayQvKM1/hmOHhW+MhVxFBg+o/X42sG9cn8aXAvBMVtDBp7xEh6A4OhdYu5v9fovxtQccb8l29HDq70N9kvPb7GE1cECrp2NlZeNjwyD/Inq8grfATlCEj9b9Bno/bl5jobiJgwrWjzXA171v2vwh8O9eUFyhkyj3Khb/wt1h2+VYM68sdf2aD8bYfCVg/cTRxj9eGKzCXB9FY0MEszpjSaYhXYHpc7bfhZr+gJAfhDwSpC/DEuz98NPFb47v0U5jnxVBV0jpqj3DirW9Rvt0gh6XNr8ZdUn/pggh6dTM0NFYu4M3uGgg4rgguI1A6UQJcrEJW9nCpk2rT/wFX+y8b0U+5Yr5wwEdPvQqseHr6/r7A2LrsbZR4HrYG15t7VBmBpNZIJcfeo4eGasw927Pw9z1LBwa8bfpgwuXhxLJHHr/fbsaPwreMN50nG3ZfzZXG3XPilsDpo5Uq/Ob/MZdQbP+txlZFj+3mIpO1zAYXWchXm8Z0cxaVkqevhqG2KfX7Pk9K/GdOKzS85Ls91jpSDMGplw5XBkTGmBDyWmiuZnUKUcHAzbg6x5rh+jw2ciZyaGQAhUIG1lUOIxYOG0CVe9qviQMWT3TyoTELeZ99J4bYD2Oxw2EC8MP9BmODT1Yui/d43b0sdpeQhHZsIcql9eiodfsf43RDRodCMeKjCP95aOv54sP1dOsf0Xblw7KLS80fq8OOX43xwYQ6x00Oq9/DMl5jUSr2+PmcvBZDCzP12716uFwZTLyZad3iJyK5lskQABJEQR+e4JqVrzGPn+s4fGyvyrI/lM1GwAfWDQ17L3wVzbJnL+vq4/0w9Fz73lVblE/GzpOGZfuOjTuCAX/HUx1X0H+H7BIqhQbt7Ne1cM/4S5OE2Bv5ny1emm3IrxVwYlwy73B5JZ8MXeH4eh6QaBKz5tORbpL7J/w/3y0Hl3fX2XBBwT8KDMJYScPh/oevgpv3tz4f/0m174R2KdQj1mQcn2/jaZ2Nm/05mXeuv/DvIy6VIVwcj8dk1v+RF1GE/+MHeQkZfXTfJ8VzYyOS4QPgr78bx9PYiSel+CLxrDJOH+Nko6rOs+Zd6aqy+kCRxKQb9dfuyZEJ674jeM5V9dBahyCBh5Fz/X9Y1h3xUKli8cvXwz3GhdL2WxwmJcInEYGaGT5K4ok3m16T4q4Ira+omHnPh2Tl8JWAKeK1t39ObQIPd/cdEMtei9i/sEcgAByGEtOCuCTe7xjrCFZFnI3yJ8VxXl8sM3CPmzHpkxZxQ0ACP9dCJGP+hxXfJ5OCXpEx3j/7gq128rEfXvFyjShOBAwAAAAAAAQkwAAAAAWHi4E8ZCtWgvjdHWBHEubh4U8SKWNr1F2aMMscKS5KRRvBAFEvi8X4jHTo64IFwRsgkpDZyCVIJMb1bX/xEOK/5SCfOT3Xoffnkm2nw2iHtIKcCGsnj8o5J9GMbpUG0NhG8BprNhJxJ/S2LqhBTMd+52KWL1YQCoCID9eSL420eHZ/kErzop3F8gW7OD22UYAIjfny3zx3nLkEB+gWP6uakRH3bKEcIeSzlWMwXGrFY3k9t1oTzsneadzxTKuHpJ21FTajOUghqLomn2pOrZDa1NFF5Fe18Z+zGgTZglkPS/lagqT16xkwavKblIrKS9lxteIB6JfErPH+YYUceiSSYeGAmT5a8nZmdncqg4Pw2Ae3hD9KgVlsdXavc76cerQpywfi/DyOzfB+eL56Pj6p2WvcX7H/dM5juXoHCI7L6iNGw4lO1IPVeJzQATaZAb+7NDOQFD9FRD9ot38UNCV+/VfQqNoPv3xkOJdnGbHgA/mXLuwgckq+foLcIflfmD4wdaQzAyK8lrXHHVjYvD7H+MQOjxmIqcPQVbYgpsH+TRL051OSOixAj5Jf/iMzOnnj4yOgAJrxheenII74cMfy9b2re+93GZQUYLDtdouty7eT7fsZ9fUMslhl++5BzMrNAcK44V+snkiTPju/pF/SaT/OT95bHyqJVB5ng9J8y5UnYb4ekLVCDcfrDnvj97v+6lJNxnffvd/4e+3OtxwYtJihUMa/rDnE5QwGZflSZD9qITmNk/7xmViOnjzS3FeVLk9JXcfvy3eE3JQPDPq2iKgUVp/4D+pu3wtDalwhvxs8fgIv8A+9YDzyDr+28bNf3arrp0T18kMbtAf7LgIeH0u3/UXv2LyfkfJS1D9FLl8ZI6awLa9q42H9cbcJPuiH7uZh09DF4/YkQL4SudCBPCvzuWetlReNjQ5FhWF5scA5YdZkMyW09Kn8Ws2C3HQ6zBYuogU9CnjVzCPawOrzsSfd9BzBP41+zRyU17XRyfEteutNKCDxsDgRyyIPZpkqmSfVH8vJbViygBGYGFFT1d/yfqzYKY0LZ5BVS+YvDTS++vhTbC8a/NpLyiAkP/CLlLAyXW/Y3tjcMoPPyM0K6tIIB6vp7cP4wAdvBAf3C6d3EjPKd6ov9dBuU497HhlqdldhdA0q1G+mO+YbMWJ3b+GpvaoEncslbV+GwLkDZwwG9RsMoe5/dVWMRtaFCpEuFTM3jg3J0swq6IoQJQn/COU6MEiJyAp49vjPJ/0o2HB3kTjedfYpTHFZn6GMMMJWfgbFxt3YHIaOTw5SGbyWaILqETvIAIVx/kPK/Mmg1QW5P68b4CTocTTzpfmPGVNfYiZMcjQN1qPQ6/TeJfQyaoTOHXibH35/BuP8PotENH36izVNrd4r0OZJhhclE/STOULd79fQvJ7r2Kt+UMSKUMP+wRmE+F8h+AtOwFM7+DV10jKIL/6Bdh+xwT+IFL9+6+SsFDye3vjIeWIT69H8Rn8/x1r/zsXHc9o0j3On60NlemNrFq6wS2JDqQhYhA+seuOJi90lxx9fvDAsFTvsZ/NMHiY+zo8fcHz/0BjoJV1jvNHHpYhs2bxBM/DN1H3pDMwJHwVDPweZh7GiTK0EUoQDr216T3dDPj3yj0kglqzKnT1o/yC8OxQA+6g63DwZyfF+MJmQ2wYKG9jp6tkG5gwYRWA7k6me7Gas7Oj7Pb6xq4v7/DMAc8vAmFfhbwNpJtbu4+vn3QO8sIdLeNPqn9z1+hM+kJl+936qg9kVyMm7j9P8hzbr9gL1PPf2DrYfiD+BZpkDg+QPxs651B2knw+ee3K/2D8ZBmODUP1JnfBCcZEgkguCVhLDOcE/q/9XhTj5l1RZvSsZUgcAsDW7JUZMH7IbFP5RMmXKtPunGaZDuVaVLZhxK8XCD4TMWwMIfNn3pDK//GcXzhgR9TB6sNeM3cOSaC8fMnHvWIbBq4D1/T7z50oYyfCMaDwPRrhxd7sHDKMuFrXG30unx1d7FaLzj/etDeF1RPA4Pg/9PfeNzmvoDofsb2h6HEL8hr2LPhF7wP/Q0vWHYBncQcAxuwHv+AbpVHG7L1/n/Y34gezsdQjMSmDn97v/Kj3td118qX+HbRRcrxmtMnEPx/+8v7w8N/w7AiZq5yx2c86uy0jMcn1+Njr45Qc8xmwqvuKZoh+Ajbq8Ow0VAtv8YgaSE8wOlOK9f28npPahDbiaNMwL+Gl9fvOcIDntFLUVOGsoY5Nu6QyGUlDwwHKg5cmey7v8Fm7NzaimFEGldinuFKT+8qAfBAw8i5Ht9ENc4rxlAeCD4Geho7yNXDRXlV+HpXG5bsKbpvHKgomXiEQGEHFcF/rmNjQXVL4zoV8bCYmdF9uJIlYyKTUTusZlYuPhh98dGv0/xsqP4Jmh/oK58XI7KLWI5eSyBsMHfxkcHfrYL43kV3k6A+/6/x0fsn9eN3SESuJt25+ump+iV2BP0b0mPgXVrUPcBp/OYmCPol1DP84AnAQ6jH1g3ogWy2NFsWo6qEpQPTKi6RLtVfuz9yR9/ipDOxGztVLUMKpOpMiqZQRNY2PIf3eP5cqlj+vr9z1+1rjdpkmdqZPOTsV8pH6uv2HyelfYerH5+R7gHg72KsI+y3AVzByfh/0FWloZnKanUmsEC2w4l+0cQvcIHj/xu/jRoXJaEH0lj/I4JxC/r9F3WM31Trf6JK17Dy0FT6BFjKwQTDsr6im4+T96oZVBxTImUjux/1WYJnn36jdz7i/eNj//J9W+CCQKtFwjw1Kfrf+GEVUDtz0qhurplnp7o5b6gPfeU+D7v16PKFxwe184MNix4E6jm+vteEB2TKlFZeq6l3uIcXuEm5GuEO9z/4eSE8bodBERaggChl+UUvBGa6Bw9QQDJDfX8z6/0S43YqDch/jo0Mfid5yv2X2P8OUNcYF344Qw83j0K9IOyGfzZ060X9Kvx2+HXYvqzLN+zV3t8dRtQy9POa7fyxhP9wrx3RPDqAzjOTxg0Dzk/bmuuMh1mPw8iVlIIZT+v2S+WXjOdEPhIayPOnBCp7mtkjoeGkvLj/OIP46bZ/BCbeOCV6/znFLwvzGz7fRK0HnbOXjOOhEInNGQ0DegNIz7A2Bh/YP4bvKxl2/hPjvLAqTyw3TFcVIIPvxKf+IjwoPjJFmC/usEHG7m9/nUMLf4SdY7fu+QxqP0F7kDWNlw+cxX6LPx8bFgdA2j2zrH+18sogMbFQ1LIrx3Nh5JQOr/uEXdR8ZxHfd51zLUnGaBZEe/DfspjGrOJ1MK/iPPS/GcVd+9IY+j1/Tj9DL+sOQgvm5ofDXC3KgkU9fRdzhheipCmyx/E42IDzr8NKs9fPLjeO7jZgoQB8blfCMg/xEO8siXhPY7rvm/CZP6n6J5euXhmE4s74wRHwgL0147R6/khcKNJqoEDHwAAAAABCTAAAAABYeMATwFvJ6i583xwCgpV4tQhvxUGN+fJpBtFx8JP7yIXlMWdjdzVi4LQwEEdRfvqGcCPBZNF0MzAztxHBO1xML8XwlKMEs8fP/1lYiEfC+SDufYUAy/+Ml/+MrRiLyw+0g/fHceM5V4z3VGZkxPxjfbwVnMmG+pL0iIjHu/GbFOcInfCGhzLQp2BI6KbcKvks9eOi4Sn8KR1ajKi+aI4OrykdxfISGm8OJbpbJj9e4zxmMDgus/WF/7lzqoT0vmW8Z3xu5YdoPaUmLVXjvcPSeUXjtIUJ807l1tDKZFcarARuUfe65xz6EF2gR6tRLafiQtT4q7PHr/TRE2aq/4yy4iDDZaW+RvM0vPNmJYXDJTv+3EUKPscp1DAcxteEAiWu1vB3I02Lf7GCl4fkLqTXSHG1iWXkpmAOKgvmd9b9FC2LjXeICvt/xdpBNaVAa8Po2mPi92h/28g1eG+PkL58yvkf2ryFLjgP77uCKHZdBSJ35bTxO7u7/hPw27x163Hy56Lb+/1GenCDzNqJsRov9MAglbhsjSDTHhtAxNBCij2Rk/+hvzBsyTx8UHzqcRz2v39b4icg8Zaf+EIH2GdaPBrXvjzV8dFQhjivOH0/8Tf3fvU9fb7J4wSZlTKrnq/8f7Lyn1VDDl9K42Plt4Dt1y2VLBytDctUbru+cZBy9/9sO6BJZGUbt2clk/pP72u/daGWIP048Y8iUv44JrcTK+zvV6ZNQQZ+/XbNjtB2aLPEbEJVV8IchV6Pb49ydgLcWDnF40Jj697kjK/EU++p8ZrXKj3jYnDH3zofZwv4K+7kQ/Hd7AwF2fFxk4NSOHTXh/l2E4b4TyIPYMfLrT34m7zb3XF9NgstgHdLi8n5rZoU69q8hCKyOJiSndSFhFBnlY7YvkVqRabc6pVWtUWeun/UMTi7gHd1TNmUeL06ZjH1YvYW3k+RW8bnqgyVWggHvgCDYErM0cltyjCIipi9mxnxsmF/v43HJGBZHP3NHDcYzwyFqk/eZ+QTMCA6/sP4Q8FnYxmEBGDgkbzs2PFLLDOKVYzf2GO3oQvcpg14BI1q+f8BuGcdXiJb1IONg+jvlTGOhneSdP9QGyPq8io8smpN9Ah5QeTyK+xvhjAC3NW9XgLXP/Am+NTG9jxghV47dJJ6U0WeMFL8n+uGIWbB36gT/VQzeeB//TPGvn+93Z0FyCaCk+30wQY0ABA6ix/UvtSEC4NasfPNyH5LELlPVO6A9gXJ67ljaeKIoPAiejcElwFyP8WGzpc1xeib8djl1sPAr46CGoD9rjO8bAs5tau/kXz+ay3P5pE8n61jZs4zwXINiRH3jbtUhvL3m8l5YD0Of7wCVPuNEkLa+Q0LvR/4eI46kGDr6A/CnGAgw4A7qr6+/7f5xn9+oQqaPPUPk66TdYfZ8Zo1kyN3uH8OteGStP4/1Wceq5uOCw/ayhQRyk9ekgzMTDDh1+/aVjdynF/46U+XOadxIhkxzJy3nL+k7EL1vkz3/l+Ed79+Mr43vmh//zZgV+/pmjl5GrBUX+y6BNY0H/fvuyfrajYacy3JsNHLYiMzkP9JpvP0VeswV/g/nMa9i1+O9yj+w0//NLf42pBESRPj1x5NibooKf/isbLVG8iVgcFx19aA/jPh6Gvw713fM0eaxZVH43DqE4kZsddGqSGiS+dvOyqHBs3cGTdYCZfM+i+M6EaMXnIEP2OxcDEfTVAi/QhsG6uHv4y/ziZUpiwL5m7j/1lCl/wTPy6sBD4zQvKY2ksSq/XDUMOfFe5f8nlvPa17GZRAY6BBr8SxPBDuiWQVABrYXZp6dqSNinBWMxwJcMAB7qxMpov14DuusB/6/7uPGgSfZ2S4y7r6+Ehp2f9Rl79y0H35/v2TX8K54XeAL4Hfwv0XqCCeNxnPKzGyxKsyiJWwv9A/Ldgy5L/fjJ4jA6ipRm9R87YD1dbW9OLiXsRv7TPxmCtUbXjomU6Li+G4Y/xvdGHkLqswYjYZh9JZ1IhkLXj54xQrFX9vJ9vuEKgdeqBb8gkhg9VdkNDqahk/9wp0P0FerM6p4zlF1LRXF06Gd+QVGQedYKrXjZ+mm4/WX+tOKZr3aGDX7Pb/d6PX9nu3CPj9IWRhT/8yiyfS+NjpubzYtJ5cCEwCY7LCu0iTj9sOhsKvmE6F8Z1oZxp9tDnw2upRSevCTPCJQ4Z4eyMhU0cL18bMTRIXB+R+qAfRRxdHZ6gDBXAj5RUIn3nV82k/BVoMLNXRc1fjN+LT0UpXh+ezpqh+fBI1fp3PYGPikHjKx67Ry/oIfAx/MT/hCs3t8tOGVtSK6CN7279R6N3F/Ko43GdhS927uPnJl2+VSF9B8vjY2EBGvgcZg4zMqOB/j4yYcHaLU60EjdLDRpC0yLxV/rqEd2ZxAXCNiXmlhmSRbxeypGzA8Z1j8IQNxW7VskPhxOEUURy1AwPLjdaCjWgYKNlL/e9BiZPfIZKejb4MmL4Q/Le1nf6PUliv9AfjZbw4/cT7gPpYP8Tl4f7vYP+hDUPU49plvYmkN6fh9WBMVh+gbkl5Y7evsIQRNp196Uyln6aqN2okP54Hg77qevr68ZFrV2KDbu2B2Il4mZfxkIXns2nfn1umsAWIFWBq9w0nMsBNL8dZDyEzN+EXABvIzbCv8bsQdk8Y7N8RQ/jAPAd+NAAZfQ/43URfL4mr11mHbEcg/H/bUAnswUVIhRPQYrq18/X0SL8LTBy3nQYfMNNtQ9O5+rX/xfeOD/cCCra/h6/OeQsZP3AlQHxNAQV+mgbAfiZwx7Ho22cM1CcpLvyrTPX6fJ5b6jOhXfmDAW+Rdburyf94zoGFEd4dZZOn6MBf6nWBDsuGXZokt0li8PoprhGMnfMVFKJziSa/D9Kxf5n4c1ej2ywKL80MnD1P01nffI7r+18vOwPCsCvCWYyNmXtzq/aVUT9JXGxhEYC8oIIyHgkF4vb2hAJYTAWe1JhmsgPLy7g/XS/4jnA4B0DcsCALxT0ug7ypykLnvMp6/Q1+P50lh3DcWP1DBt5SfX42PiuaCApKUUChHg168kLC93hh9cLdB6p/wnze4l5DC/fb0pXFVGbeZw4INzDjg1vbY+/jfw7baFlrytoREutPRtv8TIm22n4bSOhY+FHAt9hqc61Gxhr9l+CGZj4JeC/vq2dhUTLsfJ9+2M8PNT2Uoa+62UOsRKU1vfx0vLDf7wZvsEG46DAtSR859ujr+3D0pIhdH4evviePmnezwLQ3P6hHiebGstDiAju7rhPie8opD8KThiAo0jFgQM/AAAAAAEJMAAAAAFh4yBPwx/BP1aLOsEIlz8C+KcrJkvCR1LgSuO7uiIKykEPP35P9PHcaaDLQbo9lrc1LT+/j+aC19+we/4+rRpceEh86v4zoLHRdKpPY4+XvDjbAcU+6Lwh4wMnkBTlPJa4NZBAUECC69vzS1KMEebtSFHQ2j4r/f4rug2cua3Fedc4gLQ0OJ/d4Q0glxcv3SaFf8KWlxgHjQJ4Krz2QngP+r0HIrXY0mKrlP/98Z3StI5gaZcs+Phg+MAXGLD6xT0EeoCEOe0G/whGAOAajXuLR8V1EGEPg8VgXzHhX6po8peqQ0fL0UD6NXgp1qsEDWq4Swkcn/6XJ/T4+pEEo8qsPUmbOLKeQXf8d9oYDHoNqVid5Ci5H9wn7GWfd65M/1wnHAj/MO8bCtamFZ6CuOly9773dsZ777++ldarjMYnO0OWzCibF0Mas4d4qMnp7vjFM7zIT2q3qtcITpBodaf0jiOh+xMkOZVZBI/Zo4E8wEr3DdNZeJdazq6EWsj+MAhughMf4qxoECws+DAD9rQRZxXt28pPuuwWcaHB72hMOStRAwesnsuljOdu76+lHRD/i9IZAeQorYXPD63F6V8OIbwRit8mSM6anztLBwAKLZYHA62WwSrc7XJ82TZbjKIWmuK9j5bq0xvc/fYr4I/GfWVof4wGQ+S/TZ9sP3vDzFkR64IBkaj2qdapp9qoiL2/8EHvKkhvDc1B8W8r+i+CC1nkOBprNZdap937JAobGYZzFVc2CXQH++96QY8fCDY/zUj8icfsP4f2+CVcBF4m1D7xIU/zuRDO9Sv7CYXj8ZHl5xUbTfnKP+WN3zsbiPqPDOWR0nW1/T2Np4bEjQeA6oHXgdOdgSpGTY/b91Bne/Prsudr8xKgUn3fQY1uW8mwSyr2wBg8VfH+v5xZA+hvuW14B7QAAtBCN8FqAhLf3f/ntMwX2ksoHVW6heWS7ew1yeVJXjfxoBd4+jQ3lUly2i3f1oqjBcKJEk5fS/jcv99m6LWZG+bOHwXGn/geYm9i77z9f0B+xsSv5+vi4k24TbnBa0AF5RYUVatBtYcGd3ekseK4zhkfF/oBWvjbATQ+ELAeA87JHnElJszAQXIAIHVQ7/aGvjunKPpIRBA/jMq3soFH9+GBgyhgO9eHEXSWJV4Z3XdNDPK/2N/aPDl0bjN9aCEOGB1suit+Cjw4i4KLu9aGe8Ej462zPBhxfxfh3sEvCJ3jBx7EWq/YvsbUiAwF2vGryxl3UHHqRmpH/O8SyK/68mvU8cHFu/lrk9/wlR0peOFm0g9cbkCwdp9kH6ju6ntVkUjdMOIjJngSxUCE9j8gfYH3eI94QuHMWWV6r4yGULZrzLI+ASIZl3zKMrPxnUh8cpn8f5tfdYcPJ7EfjJb6WPxK44LROiBqP/o//V0DEL76D8ZmFX5pj6Z+/X8sSy4X380fR/8Tbt7z74djQisCePAASjBMNqa0KIr8Nev1gby1j1i/r1G4ZuApugxOqwJI0hvakb306GB7r7Nv7D9+J4YkE7z14DIYhJYsUqL/12vyffRCjvHrw6MnHaS/vXQX8bFwJkw3qvelPzjPpDevHRt714YC8Zu1Jcha6nIh5l2S/zn6ywxS5ZwxvstwyhvPX9ha0w/UpGlT+3u2ZIfa8IPFblnJet+hV+hP8ZOCEsc0XwzIN42JsgbqkpHTd3jI5GbTJ0g1Bp0XzTIs74ZpvaY54lsM4342ZsXLehVBt5yetgLziZCEavJQZLlKv5L1/xnoBN1QDpRWEvKlPchM4N36XksYDGGifGJz0EcoQCGUmz67vSXG5bhrHbnY/R/7a/ou9ZadNhStd42Jam4bzOviPu40xN/y56yfN+Ha6on0RbYSvkLdon87Hq9fLP+M1IWzkdcBHZlcSK2A21tAxcJOHeaoEN/h5Au/BBZPDuHoNIoH7iEkQmjc5YGxkSf7P5BVALxlS9+UH/MrcLOEITsSrS45yEzE66D/77ETK1YXzTTNft9vy8sySCAp4zjKkh47k38aE35dJK/QzXqGNkpDIgPnUL6nhRwgtEZP9VGSI2P2Ten9PVGW/KMFaEFvXpSsVySIetoojob3aHW8ogJIc6wbYFSMAAPry1lE63X9rJ/a4R7lhW2VS5rt/CO5mGqMiEZsL38ZwLDEvemfJz9FmMh1BVCJ+f0Ipp7JfG9hrhmETB4q4MZDlcQmdn4lH36uBi9fHCVAfBA6odcZhFCl0N/VmXvTJRXR7jNqDNEbqsu/N9P421INUSEceb79sGN+p+a+gkD67GzAnjxRKwH1YlvAJHbbcT+YTzRxNN33Qv9l46+f+z1ZMvUVWKip7RvmJP78PXJHBscNPscH4nHQMAShAHX9l8O4eS+o9H/dT9zRq/151QZz953IeX7A/xnRoYMxXhAl/8nIhqnisEyuN3lGtDGBbjg2/hvBGZWBf+KdBtbKAgr/QDDHF8ELzLjhGuatNf4QrX3hlF2v4zILbCNPQVBuC240JSDy8MF49+Njz/HbVT/6H6ddDNgf3oUqqGLedHur/43jjyaIcoOIq6ec0MPHXZUaLfHVS8hPn+uYC+nggJ9quP34bSqL49j8ZwRtDt0HEHJw9nG8YLnSJRH5CLkV+OrhzQwZnXg96Cnv74zOGD5g8n9y5bAiAvGe5U7hoI9GjFpkLeecVBBVoTlfxGWGEnhUA69VgadT/30OHzW1Y+ENi+mhxkQHLxWOvVjXInWuJxxMLhm1vwk7wlquNpGxXCN7u8vd/urScVQz06COEAedM70QO1kDJQxlX91XX4R5sNSEN/3D8WB+I4Ww1Cd9+vReK4ju+8P8V7nFNx1DDpPmKQshxXj4HALy8dwzjxt6/oovhX1jJh4Sr/GivZRfyHGYxNnEB6+f++F+/H6DBW5NDtuOGBwYXyZ4Y1BsuxXm+D3D4iUQNiPpTPv5vGrHljg79SCCbPm4viPeNHxlLkB9hKPRm2l+4KNKf4EDYAAAAAABCTAAAAABYeNATwL4pOGxTwvWGBTcdfRVi9INQpPcbECdGnwh0eAzfMQAH3VTFbgSYO2otb7EEBMMZP9bCEovmGPKQSDBCd3YvhhxBlgjeQoTXfCRhvCRh0A8J3GeHUz64fcZXGnFiN9mzoO9dpLgRx1qO5cHx8E1AR7l0GeGZcHlpS9O8kdZUKk9Kd5NJNLv9xn2Zm9VyxkX8e9yoBkQSqT1vsbEGl2d1/Aow36hwtDAynkzxl1Q+ShCFf2/hP5UcQYF/cGat0BcgP37i1ee7wInSfreL6dqnA71LROiI/M/jsNwdQeWWPAX1l3aP+gpX+RXjvbPK9yKYBU/GYEckNDiXlTjgHF5i9Qu3BY4AgvUo4p8rKD/GVDx4h8ZMIQCL9+w9/KkiMPNjaZEDrgeCrAC/whXDC7tRDI0awXyLuKtyywIHuLq0lwIQE6WzkzcXyYSmHKszNS+TNYZUCDZtlKxXhDHZQCrRs6W2bbbeHfflJ+k3ZNDKkutTd/fvuMhKwVbnwwIaT6tVAk2N0aZCuYcusF+T7+wjOG14kFiIDitMMKpFXQleCBODWXhONAP+q8McnkXXCHfvGDjemS64VoRvv77EXd/Nknk29DJr7DyeZzznGDfV4yMFl4YRR5WeUULK+hHYw7/UtwT3279SvsIR3OnhJ4Kb0NrtVWOl97v8PovxDm+iq5TKObiOK9Y2IJvwj42ID3jU0oDQ7lQc/qZEGqL33c+ZXuMmU7buf4dQzDcO7i3Q5xfvh2CDR77IT+yFKgj33lBoQL9U7k+3NBBubG48BgBWWdg0A+WdrlMGFCnrX+gvCG/27l+qfcb48am9zAmYn9uA92fJTKMXpI7c7JF87L+S+o3qO+fyB9j6Z48iBHWo1fLUE4f7ihEzL+bcn3fQ+/h2B018TViEOfWiB+N4wF1dTVCNAWkHa/iIe55dUHvOS4g647epglj6X9BoB+EPHDvYDX0ltR4p4xd/FZz/AO1wB1o0C+8Izhn9Rc7DIlU943t+ODVBI2X2ETPkfaP3ipZ4n1RszLcL+QxIbk98jUfOCBXtnqoc3/h9M8RxnF0RWM2nt88HxDiPf33NdQSDhtf/SKM2VdDaGqBNfN1WvNlgWG+Avu69gjGZ6O/EB6HZ5+vlCP3BBv5Xg0ulYZwjegafPu9cei/ye9dggjJOBR1m3YmuNvobeJPY77DCN1X/1fVHHzvWjhPAHlYMNcprQJJZPyew99FeKl2ljWBnRs01+Jv5eVyAPWW68b0H/yfvdjfAViHly1M4YYOFGym9C67li/r+z1WNmWhUD3oNLpZTS4Xq800+N0tCNk46C7e1M5DDqEAgjn9bL+wPJ/fIFOH0XGBE2bsP2LG3F7B436CtxD8P4zkHqEx1Owk/6xlyCc4b0iqaWmwNM00lvhLX8JW3Qti/ZR9EPl+JlSHUv94SFcQT7kqUb9hGSLQ1uPbV0SYme5okm1fsvy8sHZ1SYjIRff9jPShKwvLRYb76U4YGT+/D/ATf9enVfnj78bDyb62kXoMA3BAFkfVjT86HW1lf2O9oZpvhS8fXv5o5Pqfv4IJoeGZd2OpiicGvOEAQ4smv44JlwYHoZCVgmnznyEnLe3Hr/cvGQVPGyjpCuwTeu99H8tORkIHDj9fQ/XYycIA8AQI/ge3OGD4g7F6HEE3cL5vgbbDQF/+M+NhR1hml6lyV6Y+Waibafc4a2FyXpqyhbnUd6+/HiliNkoXuFbH7+HU+uoBu+uEZtUHIx/h2LoQvpyb0Nf3yB+QG1ij4YT91FYX3xkIH16MqWwGwHlQf9240ggPSpYH9xQ/DQhfjCF48v5jSUn1T4n2n+7dcK7eG0CwcD8AXqlge7cv2AuT1dVC++M7K21XtAWd05j+w0Dk9FxKaG7/L0uW2X9XGy065TP+g/H5w3YvYtGTZRjz2VTmOaIUOvzmUfGTd/y+WH4+Lwx4WkBZovE/gozjq7GQjyf0KUFSC+OousBAjZinf4dzDvsZwkcb+FjHD+s8J8S8Xgq/+A+trZP9bGfpI7d6HVQVQd6mgaBhdHRKpOhbvefvApT3bri8x8OYna12Qfv4dUvVDw19E+67CetENaGA8si7Gd9DtxlXXlq1h/cejew/HT2mS5NWC6G5De/jE5r+x+hlwgfbMHHIHjccm3DbLd+gJ0wad5Wg4Dqi8meF0soWuUyX4+NtJBG3wH23OVKGXKknudtVaCRVYOW0Pe8yYPiV2Hy9o1al74Kb7QrqXsP/8Xcj+MkTO+8bl7K0NBToCvKxvGB2KwcCkIf9uDBUwBhzCQvp4pucDLKYKq9v1/T+MoVIyBnMOHSsk9zDY/MDIpNP7C1wzL+vsfFinjNyPXJ/kadE/pOxnlpUklBuGjg8QP1I5Gkaryf1uM0WqtNqwSNA0TBO0XYzt5tMBUc5mT1voKXo9Abn1Ig5hp3sjxLdrBR6OrX/m+KzsTwjYgI6ZIULbXQi/tXnr8bD7fP4TO9pp0DWmg40zS7yrdYyeKDk6nWtfrMr9jhV7r6S/Lk4wfGyr/YEFk239/rtX+/eFgrYftDtruKIiPUofCeWq0q8EAiFrzXUKKQlXLT2UfU0/47YQo65zI3xz+9UJL+YauOFBXNleX3JsZ7bv346Y3pOdstO4jDKjDpo/GYz0+N+fO7756bvvp+Ml9m71Y8zRxAmu+6lIzGgXaFP2oSZX6HwTtm/fWcahVr7LV9SBgHseDhPjlfY6GYMmy8QgABXhgPH00N21YgTSleEJ1BiHmDMqvMZY5PvrG7LgYpOGLZr6jk2uCV9JRjwgNlL1NNfoD5P1VxHCbi/0qA5wAYDv99RfGCDygwdZ8n3+N90EVMOukFPb8TESjxzhv4fCXYL+DggrkHAS/0AvE9l/rgXV5wC9xfHYzv+JxwchsSQuH5NJyby9PIy8uZP1fG6pTqvc5jzrlUa/2/Gckl6XalxqUpBc/xnpnRIECuxydD1u3hpAi0soDB/Qd2VZ8j+yBltqfwGqOD9D/G5FX0JJ0NKNwHQoshr9H+P8n4fv9NDOGdk1XlYS1h5PB88ba4MK0b3/9DX9KFebzJNx3hxDQoWRk/Sn4ht+T1/HXnh5YdqT0vxmUyOnAgPPeiPoD+WwBwH3t0+aMXBnyovCdgZUjbIPj31uu7tVxmY/HIeq3YyJH7+T/asfnGrjQPnjBYWvXEdjfGTZvjceCB9cx0yG9d/jDfr68KcZ4X3BOD0+A/7J6SCuesVwSy4wQc58bfExTc3puNynv12p+P8/K4gdcAB4ee/h6VJtaAdLMm6+z4T4S0xo4fHDC4J7v6rU3C+9zsevZ+N43f4xV9Ww9a/+Hbw/02CIyMnolH93r+8I79ghl/vE3PX+xEZhfXCOMVu9buNHfz6hFeXDHcGzFN80YF5Q+biJ5dJ+OhwF0TwjhmARWSSJY4EwgQB2II7ce7WKnMbHQcjX+JlZxoQnHx1uWVTK+NlJownEacqQ1cSP5RWaw8Ky6Kd4vxgAiCPZXZ9URv4nlxThxzE0AxxXkSZofCEL7myPuTPLcX5oSRv4mK3/z5EXiHyBrjaB66sv4qAo0zggQOAAAAAAAEJMAAAAAFh42BfBTDOU6wUCsncM4KBXOJeJpwTcF3vmGIy0P82NDwQwhfehHwh7bCTrcSaLSkuT9lXE05d2YXwqKc2DRT/NlGiiaG4zwj2zYELYEJdPU1l5exLi/47hCM+oZ6JgvGERMnkbfTM0A3ZuLxkU1aQal+bnGPfebeT99sfT4EE+nrXWzPqdL4yHp6iTK8mgqLrGhk9HScoIAl7ItFFYrKXCGDk62NhgStyOsoP5DS+OMIPvqLjXBMSpuaMz3F8sQzdYtpkDHgtfGe+/NjTsmyxyoJHjmmuHx8ZhmxB2ACqW2CGyZ1f8hpCwAp/ymb2M6u4LsLn3zqNr4n1KxI0i71HhSRS4UCLDfn+jnJDiEetS0CvOAcQbQJjBJUCCEHy/kduyf94znsWYc1lCLsP7VRF8xXGW2q/L5oqRTe7xRS+rmIIvPZ9JPE+NzRpNrIZs1e++iPe7n0WBeHsDx2FxEFWHpfOM/zcctPmPi/GGWwhIS8XyEHkoL+XhDn/0tLIM83hI5P33lNI0+Xk99SXPnyftW0KlFM8nft+pk21hGOpjexT7nQD9XJ7zr+icI8U534zgQrLMTTOoJFiUxtB8eajxV7Q+pchvT8Z2U1hbPRWlRGk6HZrhE0BpUPDNZ0yXSnaXjJ2L289vt63b9iPVR1p2u7MfJiyd/whXe1AUvMIfqEBTl0sOYi6ypLPSXEd6b/jZ6PkqNtHlMTC9LPmvy8Q0X+j8bNnu17DYMceq4SOcQ0eB/mJwzT97a1/fm88Tae9PDfFb4HaSffe7mv+wn1veRPhG+2954d1w9YnkF9xiMVcfh/r62WTzuFWqCFzHGTg4ysOKBdjfgh4u6+T+G16nkq5RP0JF8TdF9OuxGRHmxAc6jxlp9eJKgXzG5840O94A4cQi+4bd47DTqP7zBuVcpPEjsTGb2J73eq3vxnlQ5Q+OiGL2mfaLGorEXxkgkH3J64ZdQStBAnJnD6Sk9sEC62se80tTujAxHsVVjjSdgk4WFZuuKv5x8IXA6Oj8ZT95WUvdsrDeae4/p3qCC/wslwg4d1ltAvk15d+/CHNmUQEuZv3cEHHPMgKxn1qKms8rZIWdLoH2H6GVIQdTZ6KCJTQewtOxK9vx5du5zCXjfKmPkwZMB6lg06RTgXOQwFNf0GBD+v07LxuZ++zVL2Ye/phBxDIkrF7hecYN2lYcstGptOhB2fzrfD/1uYQHW1jIptf6vfsTz/3DPBAu3jYQT49y+jsXwxGBnNuIayRAZwIH8DeWXl/W/9dh6UEAQwhmZK2oZ/f19gNguT3/GarnJY2MShT7GuOzNsUqF8e/G8BR7N/l4k9n47zXcfjCM+B/WVmpwHDd0BsLPTYHBH2CyAj6vDG3Kj3XbykSkGq/0F4IMwAIYRBmA/84pt54TI5yF5RAV4b2kLNATA+cg/GzkVgxUnBAemHpzYvDq8TpVuRokXYX7Bs0D8ZbP8NRBuWXD17X8IHA+37Gx0IhE61zKGf/xFYaOUkuxLf2F0LabAhewNtcNtaHuHZqvsBSiuT/7G/gS7h/vj0KS3/nL5SANoZ7m0OiGhMrt+irkDuiDTPv6o4KC/r+x9KtGxwrgnaGmXhhgQQ7OKb3jpj2riCkrh6XFaQnWnl4TNf8VDEuKV2kEEe07PSv7/KM+9c5yH0mj7S4LJBlM2CSE25emb9cC9cZZvsISPJ/lEh0Ps9ota8bAka0GquIzKLO4kztOn8J44TH5WfXtoiK+vDstHX6S15D7L6Nf0Frgg/YGOnjSt2KRMmCFoWR3Ga7Gx7DYH4yuGDrAUsMM8264ng4NiG/jLcsdtMuka4EiT2W7kG1kwor0ON9FfGsTPsZsNwYIvJ76ll+x9N4yCPR0g89M0ByNEG18NRSHprsbzFw/1/43w4hUHyJwt5l77A/gisI4PmaVcUsX1BF2rm0Db/7D8ZlEiZ8lEGcQ/pd+RXR4pKLfQ7KH+xr7ryqIMc49DZk43O14biE+f+b30zU+6ryd1YfYD+4f6WyiAhy8v3Xs9Oqj9924/d9tpD9kjhLw/5+G4elq5Pp1JF+59HWtnuVni/e7f4KaxzNHJVRoF/ukwTP9OAPeONbbf2M1uSnX9ETcJnRsDYwbzzDsvymuQuwo9yWNvydMeHa0PrQQJcPr1Rq/BP7R7rkek/qajX2f8ZoMiUehPuY9YVrVXlScng9DH4zDNW+5tOiew1anx4GpIg4LxW5/95jnSBpoaopuwQeX8VoLqtm5T06sfulMGA3nU9LwTV7t2/Vwhe/e+/jJWFbWusrE24cY3XjbeWk8OVEaYcYtJ/mds6/oF8Tf8bXlCN9bS73k+6poFUPLZB3R+bS2JkQnAtD/9Df42MphCisS0TmMHB0AATd3hklhrzFQ8doG8uR3wFInQtuo9uQhLrjry9P/G7y5zuGAxK9Y5bNF7BKJozwMbxFwqeBtsYeqrA+wOQeHUQN26ZhNWVlykFD8bDhCge7FRrytHngpEGjGP87e8ABQoR8DvVsfeMWdiV45zunwvj7/yjFi8LSA8xcTHgOP9di+l0Orim7aJV9B+T76sITwIyfPdo7vDeyXMvPHwpgybkU3bOkDVNKTrS9jq8l5oSbokIdq/H6YxtwPdJ/6gs9J/cZuPQmPjPNDKGqdJ4Qr7DUikSCJbHlBgW7qMrQgHyA2f2yjOFqHvK8+VlaYuKiAo37nsg6sU09kjPAfdvXZPuTw/6pm8gmrD/JaTd2EyCdK+7HURU+VaBf0TLxshjlJRu/mB9GQZKV84CcfoDKx47mmh3TS42Jf4zqQ9sSKDi0q9x2DiR4HzeUJpyES+x98AXdBm6e2vkmpvzhTj9bRRYP+/+NqA3YWxJJilwPVP8O3q8lrZfjzzQcOHuJTNxO0Y8LP8lo3n9JDbFpQr0Mgx/wTc8woC5TaDj6JCG+AcP3x8fGP/KwG4bH/3LB0OGeO5mcbAMazM/wlS1HYbyG3wUzBvHtPjsehfrZxlIc0uMvKP6GUTWwJs/S8+9Lh/tgbMdt4s+v0qLxvrhxKMHVQRXxpTRJzAeY185j6/kNfGX1I+iAuPK0o1cHKNfX4MEwjkS8w4YReX2EyxtDvja4DYjPgTfXhAG3CcaPvtOi3BMeBbAyvX3z99FFfZUu6xl0A+nMH6KdJyMI2C/DlewlYvYsPJSDyfhu+M9AuASFnTSCDWvA+2TCnhyCE6GpDmzDNillgZ/yf74zgnZwD1/t9S5GJdob8MWHWvILm1e4F/R/G+MDYCdw/KeID4I2ztxGhjNuDmlzffELzIP2r38f0WHX2Y+Ri6nD2QHDwT+H40I7Ax1IP0SITs9fSwKGOO04yET3GIyr+44WdO5NApsbaeuk79k/7X4K9/SeRgVFFL4QzZ4azd8NKSk9fxnWIn99qc9NXEfgFr+CXyzPIBYwfrMN+0Fkt/CGiwU5fjgMfrpgEP9DKJuEBQ/q7G43XTLj3BBtwQBXjYIkekYtZALXA56p+en42oicc5qc8EPz9+Fo5dlLOIDnhoJcZF9fsrLw74HGD6w3h8ioZInV1sP9cZ2HPzVh+4lz+0nX4d/Y6ynDmXKQX19C97YW5nRsE3movR+OE4doGYd2K9+CQONnV4R142EJ/vEcZ7xKkp36/Q2rKy2weRkNlFGKFSD2OCdrf4Em3GihUf+qsZVARKDwiEXYruSk0YQL/of7x/aXpBFqI2Jyk7elZyugmGZJVufCmwhsBo9eER8fMv+n2/14KJ8n4Xm55ntQNv4bUzXsft3hHyomD5zW0eStjNXkOnMZWHnSsO4aiZH4zHSyOGFgIAg+6fZwSNncqA+Mgnp8cPDb1wnv4zrMn0sdfi4HeP9sTxmX79/fq2wRWkJAePaPF8IWWiNM/ba3fBBeyOTrH5fOlh1Lq26/Lwj5A0N+e/P423GvLdGunampg7/WHlvNOsaEgv8rHh+9AXB80VOfmzB/uxsQfjAkF+ywlyYf3YyxHCGVjx+42GfJCfJpFuvZPiPoVbzrzinKgLx/aytlqnWnfC3WNOD7f0KPFaiInWgV2igWFxdR5kPbWyuCDpX6GP9tf6IuyYaa5HLnZFlIroRFZe30O8MLCHzrP960hiK4Tt+PAkAvgY9iDH8N7u9eenRon7V4dy/fvev2TFFk+/sfYxw4b65EI6OGiLhmeF8IWp1ihttvBf5PwjY/Z+jZQj3j83xi2jeZguhF+mfrYjjvMkO588LGdL+OlOetZn0ofghBRLzZvk4Lrv85xnw72/UbOeOqL+Ld4SjQwf8MCrG4v1MCA1Yh9csmc5Pf6Hdp7+ODgxxP+89aL7iuK8fEFyjlifzRqUvDewVy7Ed98VxWOtP3rkzoTUarXLzqXLw70UJOSiCdTVPWZX3e4CjTD6BA6AAAAAAAQkwAAAAAWHjgF8J4MIEeMrUsMYMuXl7hfBwtQlxPaNZv4VoCDCHGyEPlzHXX/tL+n8bbHn581fpcfsLb/roIZr3St47Yfk/+huPuXUsa8pFkpRAcP0/DqEU9fabsvCHGf/jAgQTvfzU5JnAjs7bgg4K+/Ma4Te0lxU18I1/VGRIeUQXwn3dHKq9gn3R2UbXZq8IVyTlFHHWik1PdL8ZKPGOjdB2D+PhftGDPDlJR0F3TRDnjeeDxAyLzJQ+dEl4YEN1ctErFRzDE4ekUA8PqQAFl+wO/h+NCn9pDwoLKiBvA9iJZbL8jo+v2C/F8ehoDyyGGnzcZu/m6ThzhOONnPttlEkKO79rVodldCowOG/f1JLRjomvJ9eoQ7ZkHvj+vqnH+78b954fjIaS2Xqxe4+QSC2O23t5wD7fPxuQ2cn9eN6hANYJ6RdCDynnq6pFpqoYJqS453txQCAr78nBdIgD2eF93Y+EOUVDiBc3jWPDXqzrFCiYsVxV/ku7/Cs9N+6/N/x+kOXFZIk59tFONPvobWXIJ5BYTUnn00+7XoYW7EEXqhIsV/R13J2zfDispp+P9LTe9XxsdPBrnlPwvP9B/MiZ/RfEypJlHkIQUE/7x8chDWeZOYNmMw5OodSFCXcICiTYKaBimsohXjPfkDksE+MgYCPBX+hmP2nhwRLEINiF1QsFQKVYmPKUBHtfW3EHxc6jjgoPXFxgIFqFOK6TU8kYcaa6gg37qWrSDHn3cCl7C+vBP7RUm5cwtK4fusM+CrJlCEa7JWEAsI5B9j/MX8P7MeLPXgdhG3YE/yTo8/vNQP99Q1/QSC8Pbfj4BEbHcZ9/5qKvahOOs+i/h7hK4EIaacfewgkgQiviG1AIdf0JAqfBdP1QOBSJIe/1akyZlyMYwU8bwv4wbYP/AMU9foX43rx18/v6Zm+3Sj0La+LhMzlAEPuw7znTX4K3K6bcgYZiH3b5n9fjcMTt/Ij9rbEjfoqr6AaBe4zv2FDbOvsfyC1bqz8NNyj4udq/jYYltBM3G9/9Tgyz4Ch9LcGfPQ1hxVnh/AQOUqn63bcu9a4NcPXsF4b5h4i/Ddyb/id+uVL/xs+bwBRqrc/+EvFjYEe+0PvTL1d8SbcMDaS3gJNRk6vzh78bwjrRxF7j7WB+SWMU0U8H4JxbxgTSyEJ3oHCREMbFK6dqCsPxt5i+WCJs3p5yyoiVbkoyVMauAM7Ya/0Byf9Y2OCgiLuWOnqvdXYFLRwMuEnSSN8HMVsLh2FbU7JUIPcnjLJDQCmGKB+NpE6bBJqrIDwB09aGrjtYG0p+xDKntgn2KCn5lyDP43GQain/HEDDeex2zUHhcOJcLiwIChQbRdl6JroI+Nhq71RLIg/BNQHm5iPL1PjJcatRrf32N/ZZU9bWtBdI76TTo9IrMci/+4/QHVfhfo4I2y+yx7P1vo9FV0EOVMe6nV1zX4drRr8ZuIRbEf+4tzZif78u+w/x9+fKtE/ff46upHe4zjH71f8bHRoeNmhaLrjT9whtoRZSaT/0RKR2dWJPdgXJ/vjbEaj7hAtRZkYRMe9hDl44mKXy0HTLWV/+6wVbFZdQW+WBbzA6VOW2qbD+OiW+yvRQEzc+M9XCFoXJP0KWx38HkCY7Z/jeMh4OiLMCZ6P03e5nCDz0rB66Bs34T5qAQat/pjReXWjNZP2PhhxW7ZzExBcHyA4zeXa/Gw4k4LwUdFBFwxkY2oOqNEiDtd7MnCX/Vf7Lw/EzrA38vZBVZ3htPDl8nzOhtf6XzEv8MS4kwZ4edLr/YT433AfcDxbg8MAbS9f7r8YCw/Ub3A2z4Tu/mbhtIgzt1zl/pyf74nby2Nc8lMn/WNhJ3tBq7nWmX6eqH3cgPKf4yCKIaNIGhN8EMwngm4vozjhq0Un31jb2FEDKuORA9X4Zf/Hinjoy4hfkN9S01tebvov6H8bMoHoG0IOsFR14UdrIaRJdqLR66qwzJvMcP4G1DdWPRI/42E+KYkydz736gQgCNGBejsg1O9wIAt/pyf/QU0NAvGOjd0DYcDdWzcDUiyUCKjxGMcQ7DLKaaReJ87jbOZRCAriP7ptY/VChfBR6DvYjGExVCI0ffwTWpMmytqJ/a4Rudj477WENWU/CGd8i+YW2u/Ze67QR8+kpUnr9h+oBfB4btC2D378Aw++72N9qHzVs3nKg019gtD8bIfgPui5xuwyziAMi7gINi8dq3eS7iDkPhzVynLJ4CF2mkfaSV//jd5TmVtTyWsVpHv57OQeDoW9INbw3/xn8Dbt3EPeje3n6ej08X0BoFH7NDlnf0SB+N31OchfuxzJw4pHlQMiaHLZ40O/ryJsh5j7/RXd9f0F8bvJPH9MpXOw5r9s/v10/+I2OVRfCeNlVYKd9Ond71veqN0hm4z7Hb/1dPd95PrSUId3x3yg4xwYlb/J/kaj8bp45Ufht0WnjJlKkSF+ag3mNNrH0qjL3PZJcT1lvhThAjUma8UEjtAPGMInB7+rAcyhnM+VcUXCKl9q7zKAtpDxt8u9DNlzCzQuSVjCRqDYZ1TxUvCK6kepV7t4bdMaN/l4WyvAKak/V0xnyUOpHDQkkxZpxV9z9POV1QZk+npviXYj+4J8d9GShHrUkz3t98omLuUSf942gugokAvIjYGVEnRbzAAEIkN4fEI1m7gIv2f7tD3opzCKDdi6kMAxruO7vXgYAr6/xu9DffuoRCVhwETj2+loYpvfbnAZwjNanULSM+Cyjwqo+eL4ZtZ+T78bBT3Qws+9flf6o035Vwl7Q6N/kgNxq2lFLEcvDcvjon7xxI/PmnGKGPJ7bnn/oO+35Ay4W35nl60/7O5A7SOkFaibP7A+tdbfl6/p6KrG8IXnoXWFNy59PParc+rXZJI3vjWE1vwnPYQtPfpT0RVyjSlN5+ejXX3Xyn0unOQKXaMKstkVbg9+qWA0+VgXtITRgdZlGaAlKeaHuq5OhQ01zDCRCAqLx8ObrGbokFCaz9YUHAMXEWZ0DcJ66RuUTXrzOdxHkfstu16Cspsfrm7obQJKPw43iNnUC8aFxOEV6cVLVqpCimv9F43sPp0r4jQWoMwpucGS3dd+AKqfQ7xmbjpj9ShUHl8f0h/xnDSUACR9j8wuXf77X4vGyWQ59tfG5TkfHeGopS5JqmtTzBhUF+uEFQZoQw9TauOFXQy/zKb6GTH2rLnp7+0/6YX4vwhcUkcx/JCAjsT8+d/X4J73pJF5b37Qznwqgiqz9aCdkfKtNUFON3te3MvhNwhBwSDduyfp04zKkhzdCN+ynm1Ilb2TeFQieopNfeQm50tAw0qLeD+UO5Y01z+CGjWQOUdJeIhy6gS2iBX0BlEvwVeZRIESKNuH5avf4e3ELNcAfX8gNmkPjBfY/Rfh3Giw50uvrQfQe+Nzw9ENTsfLrfsx24vsXHilm5vGwGD4RlCBDKAQEjluPGNgEXV/t59hLG7d99RvLR77nzY99fr9DNzBJaOV7H7Ei5DlVpJxmH4biBuq7zH9n/QbEbukbjgE7V0A7WSI8dV5RUN0QRFve8BfH1aY7D3gb9punXYPS/tWvNc5rjfZFdbyY8Q0tHg17lP1+x9dCI7j48auypOngScVveaNOsZPHheNCi0MNkZDCX+zrYfsbLwR3ZbsAnxcImALfy/FJuh+F2MsSLHqBD90ebT6/X3O6x+fMoZT8ceEv9yiU+M8cHGuKUeFB/7GMDZYkanyf94L+SFcvVl/CXFY2fnT0Bceqsfp8iCSxgXak0703IRetdAg7HI4OoiPvr36FdYKY080SXh/mD8qWdhji+GIdWs0GTXr0B+PFfxXvKoHamseCXn/e0Rx8cHK9K+CxuY++eNcF3beSunZJZtN0+hs7HuaXyozii9fmYy8XvxlCY7XBX7kd/GqmAq3CPC99EH4cyRPn3zMmBYD61/F0xHcdVq1DfD1x0YWPHhHGREfGxzaoX+xJgvDAg69Hdy/iebV6fQTr3d5OIvPiVXn4ay+6/3fC1npyfX9ijVDJCmxm8RDjeHMJG/uySzQ+ohcbNw/2/DrrxtB2Elu/qZZHmh7O+h3h1CoOGPtzmPj908JIleFifX83F+G3WkSKlStGXvvJw/xxo6sOIaWn1xsTf4e4R8ahHC+4RAwYs3roTMoXRP6wi09WS6PX7JWRIKNM4IEDvwAAAAABCTAAAAABYeOgXxcI4fgpyHUvFnz8MQxVoLhSzwjoU8GD1NxwECTy93i5qpNJdAf4vGZkZGRpVYCx2CUEfNx08LRk8I+O4IRQP0LX5TXWo6OkLXj4LzFzgtYGD+X3vURDSmUut3rSv8fxqB7culSgK/m02DUCSI58ZxunWiZckx6yeVeFCtDV8NxNPhD3IDg3FSq3PYQHxssx2C2JFcTUX5xAcJcgi/md4vtGCN+HisNnD5zak8dnocgvGC1JvW9bqdPsEWeF+6IM3fHxBb3ShgLvS45hMi6/GehmDE4b9DdTRiliD0vCmgmBoeNCkiB+R5s97+0R6EWEoL3aQxNOUFaxJ63WM1vVluDy+B3rzGnruCXnYUnnAnsDArG9Ei3aG97YTvbAB8P5OPlAwe1OJJFcTS6XX2L+L6COX4Jndm83O51y84wQ0nqDPNl8rHiMdjA0lGepiKukuK2dOgyw2+UEUbooPPu0ytDOWDD1if+xd738IXaxzsrFS1xm5MhGkuBdTJe1Gx3I4CkVjQVW017zqPk+r6Gd9iUYEkBC/jg96Bi4xUU92m9MUI7eDByX1yY+5dcCEVAlS1H/vvk483Y5YYxehWTT+2UoXmpnr6fJx+U9Mtw0v6vEC4k3Wvxtggyv3cLMp8cbPaN2tf4cYKTXsF/sXJJwvXJQ7sq4ymV++GNCvGjoZEr5spJNp/FXPnvFYmF9D/HTZ43ON+ZzQyCLdN5XRhd/eXrknXYEcQVgl+MjIo1QjIbkfcG8eo5/MLtNpOBZNgnlRZ1Mfmbl29wuqoIU0uOpitTFt9VieM73nGyjXGaoc1L5P/SHz6Y69LSwuig+MD7ObdG9yzJi3x4u8A/xbSxHoJaHCs/597hl6qz4KPbVzZbt61wlzb2CGWS4Rlp8vff42Hcf+Ojq65baCBfyjGErwGX+1J/6jfHi85zDTBqC6/EJBj6r+18b9oJGAmtiwTu7t4D0SeCHE+6lSX9hM/GwZi6gB/GuvDwQXv1I2mK4MH1XNdD7BMF4zx+X8wIPHAwOmlM+4nLmr6XIK3Z3lDPxNeRRxWNjVzEh9FKOkN3vFUW0BLqHFb/rjPVN8fgKlxWvozwzMeHQTNjkxrrfrvorj46CZs/fRwzxsuWlMNt2Z8/jIY88nvmwZxfHm6vzt/G8xcu0tG1gq/OA1SNfDCP9Cgh8LDfj4eCy/BB28ghzMKC8cP9chdhdNLwQZi/DcF2HQwHCJbYMWHXeF+v42YvCikolA80KGiOY3ILSH1oz0MSvax8pESwYcDt24pBgFQqaHCDhvpQz9XS8O+cIHdqD8RujUQjX/Io8bmOjRckzdnhkI3gUuSzniBoY4KRiVJFwOU1Iu65dRJy+kxuF2hzxsz8Ezfwf7GcQOAp1qZflP7yK2sNqRYcJ3gGJsDPjIgLE17DYvqsb+IaFwwn/IIY2EXrgcBTIFg39D9FjA4f2no9fascKCMaV6Nx1Bt1jP0NIpHrhcKoTErMkVxWg7eXxYPb4XzJh77cCEvb31r+if+o2hRbg20nHI/5/7jl2EnjOk+BE3jzPguiXWlsSfeorFHd31xvHzQ89HgmabhfAB0TtTGrhOetuvCAOqF6AmCbvobz9yPwh8Eg6Ut1/KRx0d3VJr39jeAUSdx1wj44bcqwKAu1Doam5F3t0ynkdK/1+1+Mjgc+m7uZs3/jk/1gIW1LCXInvIb61GdgYDv7pOiQvIU08nAKa40Pr3HODLnYqNiZnjauiXYnrWaEfhnHa1Pr1XG4wDigI0cGyU6Sz/iPePk0Q2TjT/3+y9fvqoQvyGM5sk0Z974V9/wDh1D5IGtAucEAeT1fw/x7O1oZ30aMG966D+uNhtYdRRJd+tyOrKlmYAt72hfWxB4Mn39t/npWE/5r5q5xhQ5P3vG4bZggfR/7Bgw4huTCHhA5KFvZwwTXEOk/Upr/YfjbpIslRMZQUGAAhlFmkK+u4h9DRLwZ846KBd3jBqPQLx4Kq/v8ZwP1aBRtEFq/w6uEtB4Jm29oobB8DaICiVhCPGVdrEtqH8fIr7PKgvdYLNDKy/uIUGGsAELJNl0CupCR+k9R1eRiKERSm5/8VGgq66dWJJn25aCfSfH/fiD4vzM6dUiXfXBB72ysNVuXtMdfzjVKmh2qrXUXXctDYJG1NQnBS9PwxLCkzpusfWCV9vsPPDYvjKFKA1cG9xg5Z3u7umwkYILYEn9yHBVw2thBBDoDXiFHgLfaQv/1IeAfG+g1ZfOTEL5jZQifgLvPjBnxACTBwr6rMEKw6lhfJEfmyqwXTvdiK9xcYGSFZMmD8b0BfEPCXG6RgYAlGdL895S4j9c+PI+NBM+hqQx6/nHfjuosZMCKXp/83vd+/YZmpHu3+h8QJcuDRuXar+xUYjeLyiC8gyDvGG+Y5J23KuTFOhwS73VJ9FVWEeaeEO3xUuTH8xnTCGnnh/XxmcNkynOgD7uka