[{"device_id":"","trial_type":"initialize-camera","trial_index":0,"time_elapsed":8927,"internal_node_id":"0.0-0.0"},{"rt":5224,"stimulus":"<p>Video is recording. Click done after a few seconds.</p>","response":0,"trial_type":"html-button-response","trial_index":1,"time_elapsed":14152,"internal_node_id":"0.0-1.0","record_video_data":"GkXfo6NChoEBQveBAULygQRC84EIQoKIbWF0cm9za2FCh4EEQoWBAhhTgGcB/////////xVJqWaZKtexgw9CQE2AhkNocm9tZVdBhkNocm9tZRZUrmutrqvXgQFzxYd4CNknK9M8g4EBho9WX01QRUc0L0lTTy9BVkPgiLCCAoC6ggHgH0O2dQH/////////54EAo2K1gQAAgAAAAAEJEAAAAAFnQsAelaAoD2hAAAD6AAA6mAPHCagAAAABaM48gAAAAAFluAQRxGJAAEDL9JqTUmJ8mpNSYk8nJhegJyYuTFyak1Ji5NSYnycmLk1EYn6kxcmbkxcmpNScnJycnJycnJycnJycnJn5OuXk5OXk5dMnLy6rl5NsmpNsm2uTleXl5eTbJycnJycnJycnJycnJycnJcmbk5eXl5eTl3Ly9Z+s/J1y8vLy8uqeXrl3LycnJycnJycnJycnJycnJyba5eTl1XJqTl5euXcvJy7rk5eXl5Xk21uTPy9cnJycnJycnJycnJycnJ1bl5OuXl5dtZ+Tl5eTl72ycvJm5dxPqlrLy7l75eTNycnJycnJycnJycnJycnXJ13m7zcvLuXl5dsu65dy8vLycu5Xl//OaiF79+XHuFkQIsF8QIWTmWcnV+IK4i7jGeO+JGOEYIsWZMMNghzsOSuKLqW5dOlRNgy9Y0fqs762VU9OM94CXa3/7rrXo43LT8sCfZjVVMD+7lzwIYAUl6YugrX/gL8X4frjX9YaZZbk5OTk5OTk5OTk5OTk5OrLycvJy7rPyal3LycvLycvLycvWMr+2Mn3sZ7pOAK0NyZ34NjjKa3x7QFabIQzElR4KMxz8OLjdnF5OW9y4kGpGsCFFHeAZ+cgbgqRofNjunqPBvTBufA7UP2iY9rwrci+vd3vqW5P1Fu0qqbRwWK+GzlA0VCmCNCtpRSWsuds7iaE+Uxiu0KKGyoxhKP/8H4ip7KNf7jPWTv0448nTJ2dBH6PUDePDIeUCInX+z+2gnAzmuJEakKUESUsvrqaLXX1UZqsFPmpHdAyE+j7T5CD6+7SQjyMg54ZXSQ6z69XtYr1Wq8akUxEKLQ2ab7ejLZTIbMW9A5HXi9rrDGSN/AjncGuN35z16rqevpJfHWiR6JROOCky5baMGC78X9v//+FYJzUsGd0ab2KoVIOqZvyL//8Kwem5ZFPr5rxcBVsLLn//8KxncsLNOdZjdBB9ImEv///CsjDWQx6kzG0LzkKQ0J8r//8KyxEONxNlhlq0j5r/+utWFYSNcBg9TScJhwtAFsD6PzQQRRZj/6//rFdcK/gLqYpEEHLG+e8euTk5OTk5OTkmLhdS8nLybZeTl2ycnLtl5Ny5cJqT/kRWs3jMAOC0kCwO2ASg2iAiAAcqGAL3jUy3+wNmnt/wosLXEgABAD5nxqn+An34/pv17QgSAGCpVAbf14nj//8MkgIFtV/6P6fo2z9/9/n4TJAAgGmr0MF1xqzWDv/FFire7+VZCagDO0VHXN/29tvjkL4AOz6PAkd9at0xz7fG9LJ+Mu1N1/bbCTgC0v1l2YvtXSI0Mzujjr2pSjKt87RW9hKdg1G4u4+hBQHOtp+Q+N/++m+bnGXTdaw9ttvXcWnGEVAA0fKRnQi6Nru7pH2nTLb9p5uSnTTCLgmwzOba//vGfhHCgA9/H/5MExboCGFbdZ+fa//rM6rzgIpFcLXK0el1UnjBlMao3Xz080ThYT8qxjS7nQKQB6rO7E5OTk5OTk65NIvJy940peTl5NSbl1L1y8vwt9gbDPtwa3HpnSFWY+uOpSTACjxMPfrepXBAGDpglgAwXeSBhVdve7dz9Xx/XW5YBkSSAnfNUQIHQrgC95Jxf/6zqITUASvbMBSf+/p9HqAF47LDl6Nm/ttt/tthlQAvNMNNYgVHdS7m/k+p4zu6z1svx27vNxVAJ+3zM1M1qi/e6cWwxVRzbu/z3GsPlABv5vCDgAlJo6Ha9BGov2x1AF+DsHTRh8jRJqlJ9d7WMlPJp3HjnABHe1d1rpf4X9++XrGWRc5BLhQBsUAB+v7dae9G0Ip7yF/tph0tM8S9Gw7QqGTk5OTk5OTPycvXLycu5eXUvLy8vLy8nLjtPa1vay1G1uTj3p8aX3AfxpNUs+eAY7frvtChIAFFnaTRZgZHxvpiJ/XhV6+UoW0B86FSQDDzng8Bv/uN1G1NzYup8zyUUHvH47HM2CVJfOidjnlxEglw50BDACDz54GBBPvb73+tfz9KHaqqFZUZM4ma7/rzOiJoiIlEerNnW3HY+AWThCQvDIKkRZiHoaq7k6YQG/rCWABT+r/EYrQbM9IWssGIwSAD4s/sk3WkTNQuTR2FGr7//SH/9utTqEKmYPtpmfui62oLG/69lMnJycnJydbl5eXvl5e+Xl5eXrk6y4Tj/9f/2sTF2/F0StkswPqPDpKJ4sZSTPqGSQAxB8zQxn/v8vc8wfb8TcOxx7KPgWHJvXuJcRKFJ0HZJVFBlwmb8Fwj1VjnCw1f+vy4fMaI4HTEgpTggIlORVU1R/7Ylxu5Dg8qlSVWjJVa9QhgMDtQCdfOB/fj8NhASXc+3rcK9bpyQke+TN1usdpp//t2MWvtGDtNNYYNol7pjSYe3Sha9MZOTk5OTk6xWXcnJlwvJy7l23y6l5eXvl5P4/8Obf5mYaFMgNHpMGo7AoJxmgsJRSKRVHcpeyI7lJlO5+FSQAZWlKwav8+rU98tqqJXdd0K4BEf5l+7//J0+jyQCPxGQF/6aenHYB/o7m/9NPuOJAga0Fr9f9QjgBBavd/u///k4twzM6Kou6DhmlcGl5U2kKP6lQ8kADGZew8yhxX/796Ze40/3JmUVXJhSnClLR25i5Lqb2d3C2li+SFaSv1qGXAMGsPJ0/zzp2c/Z61ej6Ss3Oa/1I8mbkx5ktVhhTX/0+35uDtamh7xysx2iNTMfqTMnJycnJycm5O+Tk2y6ROXcukXl65MuF63E6Vf9vs2HPCgDg4hhzcy+uuRTDgEmbKNtiAfrwq4C2AE+2Yb5oruGO713+xZ589MLdOueeJn7eeCZl/IWPub7m8TYUBCPX/7A7pRhTfkT9bl+tZluKXd7vrhQVEMC3pACo6BHqdiOanoC2lmdJtwe/y9+Cgfti4NXOYfL3UX6f/rve5rcVh7bQBjxc/OUT4lcUdHc7U1K/Jb88b5ko3zv8iz+3rnM+Kgh+3xOx2l347ejZG7aHtf5ux1i3oCdl8atPj96fr/cc4AYpegnBXd8tPT05enu+o3GlIxLeXC+OxXED82GjBC8/+BMbd4wAvPUPq/JyF13dxftQ4D2I0KswGqS+flJ+CEljsfnCPYer84VYzqTwClTKaRvx9RPU8PIjqq6mXdb6V+Y8aUsTSFXY3hn+wM9Pfn8gf3lUZDxchPvfMDKtGQEmiPWsamf01Zct4J6Yecnf6JLX8CuoaaAA2rYsnMmUnTMP75Qf1L7/0hCBswCRgndQo/3KQFdlAbmA6jxyPkeeii5aoQvi0hqiVK/DoNDGKFl6bdEXkkAYFtjKlAQQMLC1Tc3cydN//9h38Ji9KPfVXX9kKycvLlwmAxo69w//0b+M3Qo1/V3Hnszuu5QC3S/CVpsParmQa3QXJycnJycmIcLyd8vfLybl5dIve2XNy8T6k/won0nDndjHjirGDhnUFR+XXljoqaJYgpEwN/vbUCt2s4ErpD+XBjdeAYSetdIsEz5IDPV0q5WATQEi1Y8oP2oCG2s1X6Axct2FAqbHeRryYzsomDvedZTbMOU9oORD27KKQJEgDO+ikYKM9X6k8DdUH3j727+hlQAuOWkrd1z4T0nMtOR6wPO3YHR8lPpjasqvROMfHfpp9BWaLa00RK/uIuPcs5KOlvXhGfMR1aVcMVfHiIGp58dAdLcB7ZmQCxOX0s9sRl/yFKotg8H+1FGM2kCKL6C6mOO7We7DeOutKeGrVszOygSAy2GLqRVzfkHjRKnWfMHdo+3gaPRYV2bho0baOVAxtDDmkB8/tc9tEw4vbyjv0HXMxB4IZoN1Eng3ZrlGaTFPxnpW0kDc6lX+HZNZw+wTKaEyIFP+3WamcJCAgnmvqC7Wio/YIFc9eVgRuWTh5jD7yqlF2HxqzVCq5e2rn3/6S+tln8tBQrFUJRRFCI0+aHEdJITW9j1l7zOmpDOqEjpq0GbCw7onToi66LnjK+CS8QDNm4/9BFFnJ7+UjL6o1qF21xrPlQEfWxW3DVqoVqEBDu2+LFrHJyRdrRMie8e07T7CqgGw3U0mZgY59HWnDSfny4hwvLx2ETkp/f+7mr2MWEGsQepuDq9Mh8ziTTCq9MUm3RkdMgLtL3q9/zM3rycnJycnJy8uXC7vUmXS8upOXk0ial5OuXLhV0RAE0YOaH+6V3GzgBpFNKHi/zYycTp/AZaDdfhPW5Yu+c/l9NEbhpSRYwV3pwf2zvGNZvFJvXJnLgs/MhJqZFk7FLYUZEuEQ+j06gDDpDl6yZBdQARB1qPJ3vd7Jqp6pWB7/mVm1N0CqS+6+23hXDoD11DphTs/V1t1tz93ubZ74l/tARCQDNEoKI/FQPZuz5WZ4T6SHZXpMnVs/fQEmzMVB/Iuzs+yd2IK4AYzEPk77ps07puuNUy8vb/QjgJyTYzErf/rVPKcnJ4/sDNYwyJeapJQkJ/S+GqhV2RF+enDjrk6svWRVVsZI7aJi6tDngVthbytwvWxRX2ZjrlBEBe2B3rtwIgjS6uJv10TVbFM5mdQA1a7SuCRfyDY/laF2V11uVhrUDhT3yceuz4UwYnyrkv3yVUfIZV6sS4GB2yYBxvOoWA2TWxJZcwH+vOUJuZoMcIteg6VcziQnKJnWGq0HVAHYuEOuyS2tfAe/tAaSoh1gBYykfsISrz9djh91m322SK4SRnY/7EpMYQVUg8O8Zwb83BGcNHQ0vnDBYfGA1Uh8YkxUZfzjfAya7Yj//ojv7cd8sc78bWGTv0HYjhObowqORha4e9ugLxufvp2C5GEsP7ggDb19LhDBTJTODzwSgx7CbFt9BVZ32JXv/XmcuBsUf0CoBhDIfafjhnAxwFROOFKMsH2hLhUUdgBlmHbbTRYZYPVEpYWWGiopOTk5OTk5MVk5e+Tk5eXl5eXl1Jy8u73/7ftGXxD+7xpgIQaEW3m0iPYCa2lNppaPEVtINbWvwidK3h7pTGS03BtF7JLrve2AJEwCgN/ZjWYg3wzt4T8EL8aP6i3LsLtk2JVTqDmsFICZ1T3nVUqoYrl6ocviXxeGvOAszc81MKgX+Tj02efefuPfFBDjXlpZFXa/QZb5r+XYVwAqu1EgMfc0FH2wd1Yvob9/9b3Tkc4AZWcJ1Ef/v9+tXviPUvpToQBoiATvyEz9gR9X1U/ly5Iy/5a86qNbvi4m/KPja+MB3szdowoHfcEi65y5z5V6c+gHthhQAdb9yG5GfN27zaSyRlnKXr1+v9ORPImYAAWBvP5ngDyXLv7lNhtv+CILfeDNStmPeZkIEpnP7X4O3W+okAdJd/WKTuUDoCP9dAKjBWymzcyo1rXPQ8NqbGq7da3ZYxiTFbaIlvUSTkhs4Eg7r0fHOAR5+Il/T68uJGiVh28M/d4elrIHiIKKcnMbiGy6Tr2JM/Q/DxDaEASGyERWk9ghmHxlBXD6KWg1Q1CTTi7BGXmDgdCoGEXLf/yD9B0CKOhDOGPKqYI4/oMwVgKh0CQLHYEqqeg8mn0ag2fVkJIfHY1X7//TycnJycnJuXvvly4Xl5dS6l65eXl71H4AGNr1dF//eiPBXw+EQz6shPcgm1hMFsN4zMmbWG64rNCPGklzpgFjPyIwgQOT8jRfVxDXUoiYi8obN2Pk1i6fA/0tTPcZwb0HoU746H5X9G6EekLNDtM4OxxW5UpjbG7mlmxkxURhHFU0aFXABD+lHKAO730/Rg7em0I4AM2/0Qh3vvcvN9nh1HbPyXC1fdDRaKAvVGNVpptDvnb7csAt/kUMzPRz43zmhMO6PkXX8vhJQBHF3IedCHb327Zvm/o4kCG2R1pf93t+wJHI4WiJFgDl8TDzS4jwagK9FXv8a617eOdoaWfEZoNLYQ+WSB2ysLaioxfKa1NmkhRwR+WjG8wxv949pvW7GL85EHxW0DK64JFQd7nlMynrGJjaSyZVpWoQcFale6M95pTIDQarFoSBVhqYtxStzaDhdax7h6kH7uputd1I/VRaw26UbfopMN/TW1x8v8hUJo31D9SCG/yyisaopKPCtFpFdlRU0PhlaywNl1O3cisc758PLRMHR3UkpLoIfQ2HsEw6CQY4VgwV2DsBQEwfYPqyvQxzmqYYLBLAVIH6oiQE5I0Je8A4CSOx0O//+WFPJycnJycmKy7vvl5eXl5eXl71LxPqRVJ7IYxd6FCjRULEdcQeyEoA6IrM7/zgudfljsH72YI328V6BMvD1eP4Ectvi5NuXQlNdey6Ks39vsJ5w55gTXu3x8fxEjvpFnrwGzC6gARB+kDN7jm8sIUfufLHEMHfvhVwAj6+zAjT59MLe79/J3hVQAjl6sAmO79yfJ0xzo2U49GZDyFyQAXcO6EgXiR9Wbrk/TZXl/okof2wmoAO2G6lSOA34bFeE7q7UA+6dhVxXyY96xXgdq8VtBtQo+Co0KKBrY9KWB2Eeaq4tZl5bx3VMkTkpQvlXDW/1+NuTTaTStMRjb0dhlQAIQUmjA6R2DnH5ay2443B3+N8LWkNwldbL2wRvn9j+mmFMAU8moNaJ2Wu3GVaaRxZIKsMhyMfdlFOrPtOrWWOTVqJqjYckVKNHWQ8MY61ceIBbK83ZHrxLT/FcIF9U5N++FMA9bvEZzOED4Un3rXl19qCTbGkRHpn06Cs0xRUvC7c8O8SksRGUEyZhB2jV/2HP8sT0WevZRWwi4Tcl5gGt2P0lI+X9aDeG4Kc/O/zD2qPMVUxalM8Jsda4a5kaJVLQ8hHPBpfB3pcop5Tw0XdBmXJy3HKCcM3JfZYLXpwBwOAmGwwhh8avGqC0HQTBINBoF/CD3QX6F/x2CPoPyIvZWWwzjM8FfAdhRq9lX5oWVPJycnJycmKyZcfLy8vLy8upeXl5dU9/9pfi8O++BcxqzF/t4bUbEGJmXrPLJKtOT+QDqmnA3kZE13ZCQ+0BI3qXx4ycOUbXNxPCjAqMtNP5IUQTGihSPzHL9/BrrAC1NqwItvHycoPQdOJdCIFLf24UwJHmrvs8a0/7wzgAiZbaglZ+QoWUHN0z6jL7+6+/DDgDkhxPIdSE+XaW53P7US9Mtm47fbid/bwmSAJz+RhL/zTJs+E2KOPjJtzqhMkAZyKdeQhQJvw/6ntSqrl/Dn5dt17/W8d0L4A+NERsoAMoCHpD/kv5ayxbnxzq3ykw2DHkeN+lWXvJX7bfFboZJ1gZckZWpY01UjGLrDulNusVpB+G60bG+Pt08KETtuZPYGumEpsKQQXbn7qD752USiEdCi9pBWs1xkz5VpZr6o+TPlvynZJpPTXWH2G6YTtYrWnGleDFDQAu0ynPNZT25TnXad0AsRYWDBCYYKZz4Z074Kx0T1JQwdr10kBrXFgVnXT0wR3J4mXT+ZsmYfWq8ZaUnE8G7v/0h8dOoJ8jNDq5K8tpu56DLhXOuz90ziTfhX3UzlJygEf+23kMvBV1vYW2ArA/gGgMBhfjxNc5px5GQgN+/dPtwgT//Z8IYSiRywXQJgvsEwUOIpXAxdACRAKQ3CLOqMOC4wREYrh+CGDDaK6uWC57HUxjZXh2PUOafLvQYuDcyPlvqvQpTpVjsOlPf/+eBHk5OTk5OTFb5dy8vLy6rl75eXl71/3kUiAYQ54AHcWF2ICF6xqlB9UjZ234UgIgH695O5+PXkUA7kjVprpfv3741QKoK4MbGml/5+//nQqzKpoRsTVXQaumcispa3vPwiQyrjNGRGf28LOAB/M1yHjkEH+CikJw+HJ9Ab+bx6gB270ODPcvv78MuAu92YJvblhf0/5K/fhRQBuzSp+/9MW/m/6F1AA//FarCd9b+tU2j4mWyazWx28YrLWDr9KvTTbhlQBkWVMLYDs/n7VGnpxtctYq6tm/z9vCpIAUs3kg2vPnd020gpVGtPaab4vZCiRHOSCdgFWnODtszEXIVMKXo1pYRAVPuFM+366lqHaVihcmA+9b2ZpA5dbymrrDnFbQyGPEy79czoU0ouovyXEDVBdx7iGkzuVomnl2U35KdPDgTkbKySs2bWNJo0DrtrAMtEy6fboE1IeYAKj20XSM9wW91NlGtVV+NRV5W00Jb4ImnJ6ENhkBxjLBQBjqCENSOKsvJHAv6r7xdj/T1gepM8u1NUbOgm9SvDlHv9Op9i11qSGmGFYTWxqe+9dYiCzr9Dv84IW8APazhzP3ScZVft/ZPcfmtVjkA065vx+j54AOPpTfkX9S2eRCOk0/66rGY3mYIusNUyw4VCJJhPyUjKJuuZVJGdAhX1P6v1ciOpdoRoarXkgNlg2IZD83jivoKEdqbhz3Wvb4zJa/NkF0+Xo2e7J7fb8Ftm4WNe9Rre5urul6fbgmHz+xEvudn4Ew3Mg+XV92I6llLIsiyLIsiyYgcLybl5eXSLy8ve0Xl5d/yt7GTQhm8C8Rdjgj32Dg88+xWFud/vswsDYB8ir7v3KzXe0RhByw3l5dwxgAhiiHcykODf/vONaO46XKsM/jXBZ6W0vx0b/UKOAEXr08P/337tlYvlW7L7l6aFMADKtsuB63fm3bLMvT3jXPuuMK+srG2FSQBotliWuO35O2+2Sd2+YjiQAD1iVUdQIpK/mSvnt/2cKza4nUF+sZUuym7asE8A0FfAGDO23IpqA3eYfWolZ7ybzUL1EYz6WyGMAeo9yNAXKd/tIUxvWKZMblnSO48N62tbDm5ZNo3pjr14sbK++s+yLv3560UNycXOp+NxlcraFvwau2UcY/cv9B5+U61Nht3RX+7CTSqpKvS1eGB17c9+FZyKj45ysrNTlVlYhSMvNfdxWSoS2sCH2sG7iAyB1ujlTkCfPze5ty6zLEFw4W0vTt6OhmsngyXPafzulfCM60jMC9znOEHGdU8FRM9Pf2f/1WvUTgkac9EqATeUDrGhXBA5wkeSX//S5G1NCzoiYJIO8gRKZAe1LzovZgoEI1RKdqXFqBNfZ5XPycnJycnJuXvl75dS8nLycvJwhgheu///gVZG2zWnY2eMCLWmW+EuOmPt3peaFXATDunuvetb/9I7Z8dV5czARwAbmn0sZgpm6pxtDhoN3eLlXUay8L0jmmfyyA5Kik5EM3IsIP00sMXwCoVSpv82XJp+bv/IUJAB/ue82AVfCv4NYx//xCuAJ9o5UNg77+pphuMdumm64/Tjy9OtFfSMUdwp8YTd2nrI/ouVcvhxaVf6+b3End685H01Ng92C0dQFrgzbN2reKr+95G5AyAfDxOuyXFfrd4hQBu/YgehNQBX5Exl2a/utab39CBIBd7EAG/+/qEXAQlbqm/1rvlw1gkjjLJEhZoEcAk2SAxvSf/xzo5hHCll+v/FYCH0y/qSN9zfUvLqsuE5OTEOF5eXUnLy5cLy8vLy/4s32thzqlSh4rMpVLkXet7hLAJ23kdbiff1954fZEuBo6N7siXvJm5XGVCGB5Klf//OoEJOkMmj8Ah8k0tf7f8IKCDsVH/m/wioAQmFPcYOC1UvJ/VVrTLgjHCT+AhgAjNXvL5/HO/0xLhCevTQhgBgJqoBzRTTu7vd3e8IYAzM4k7bf1/whgK9DLYtf/47C6cP/rveH8DFgtfFcICB16E4UHuhFQFHGwuz6/+McNK0VAN36yuXC7vGlJhCenk3ffJy5cLycvL3y7l/gz9oMT5cvgGDwnDsQ5ccGvkg6RgzT9FmhBQBg21UevN//97hFwBX+LScnv//I4dUHkIJXYMhIQ/wJcyjrwJmdO2EcCEPY+o67/vce4CdMiEBQe+n9vbhTAB28aIlBcHJp93fn4rPz3/R2AM3l6b3v+uT1XCrgEQ0x0q3/755tCOADG0t6ES9/1CLm3wT4uBBwgNbLr/eetx2NZetf+VQLvVhFCX0CFPDpFAMbQ67KoUFAVRKpDGAMXjSTX9X/3X7Hv1K4UFXjLIuCEw6ofgA75SHRMa3W6emnTqmmmTkxA4XbJ3y6Bl5dsnLuXl5f7eGwPAnNATSHaaM33IdMOzVC199tcc/u2FSQBi0fAbdW5+/t/8nEmAfkzrCqPK85MjsbVVgQPdfhDAXfTMe3J/t8fgAgM1yf9/e2HFb1/47CcNxB2vr/8JYATfGO0Tjyf8pr8Xi9oQUQaDbyf/+EHAHWswo77f/hTCceYKnF/f//vCGCvgNP/xrvkcQ8mEzVWEcCB55o53v/45wJF1G8uf/JhLyNlwgmcLghx1QZUAIDP1jCFf3zeaHvvS79cLOAiygYXf+Iw+v6y4QR1hcAc+RA44TgiwdL0mXHy99ZcLybl2ycu5f//s2FPBHvtNi0t2tH5W7DVMHp5evxK/rIo9W8AZ2cSGJ8i4Aw+8xdYjhRZl1ebkwyqFUEKq/IJKEv3H/0/a1AiG6II4Eeo15/1w05Xy5ZEwsopXCB2IQwS1Djv9P83cRjF56UMoxKh9jvSuPoCbhDAiSbjv/75cMMhVKwGSQAirkWZb7wvZfckHP/zS3vWsThpTOlwimcEuA1ZirGiMQ40vWXC98vLy8vI6l3+0tm5fwL00gsmPnU3HLeuDXB0uufviMeZ5pHGVJhHR3CWACMqcF62K43fy+qqrfZF6OyuLk4/Gqff/ycTiWDR+ASPVGtf0/t5cdahXACC1eo/9t/6enCRS9CGADDr1k5/X+Susmv5M3CLjIw//49pwhgEHpwbTfGM/f82svdIpz6w1UTgD9yYcXFbx2EFwQUOthOIBY6EiQAw9HWf6tZRX8UcUYV6Z58+SuEVnBKlh6XCdFWE3L2TLuXl5Xl6y4X//2ZsOeBeQ0pI5O/r/exl4Qx7DUZuf954w9+sqlwuIcE4I6YdS7MyOiWZrcnwSf7uPAbFMzBJcAW399oAfUaPevxzGAr7rCzgAwabtGbzf7ws4/fr9OXCcmNqXGtBGh9ISEfGlBDAJPTylTlh//COjpv9P/yYRCq4CLgjzpk//+EcELGJan/0/CLg6sW3//ewYQyR+v/9LNaaADWbv+Xv47hM2A/4PwBIANuYur52n6cJbtt4QwEApDStX/+8mF1JK4ITB0wWwAYwyGuahbf/e8LOmWDDZ94oNGFIFBumWN73rhJwKYHUf/hv7/0uDWQLPyYhx8vfJ3jSleuXG1COAAtPaSTbSf/+mDkvs2GVlEnkG7wMoPhCkujT23BDBf+3E4TuaSS5OUkFLQiUCa0iMriT7wTf3R4AjUG3p8ANyvgGcDR4qXnBrgvBA/0+Dt5MrYhLOL4m0dSkfzwL/ISTb/j6JJgQt/3m8MkgGXJ5oJf/3anHv6iHqiffkVfflceQE5NomET0wnDIjeJUPANRUIqAk9s+4/+M98uE4k/AVRIcCLnR7f/8mDGUrjLMvNv39m+xNQ7XmFnA2dLVgjsQd5jRzEVLvetQy5DOqz/vb+M9/eXDAConBEd0xSQQ0GHFUIfVVCRCbSiBTBhMq9PNHTmRU/XicGsgYhBQCFpGVd3//byYhwvJy8vfI5dL39oERGxNHGN8DaHyzN2cKK2CGDparu8KKAE3Udkb2f832c3ZtSgIvQw9FwZNlkUioVz4EV9+AehlG2OAtMbOwN4yve7rGPggdiARxjRVOzwECfLbhWyKqd9359of/4TgOU7Hh7yV6NKvRNn4wPqZh2F8AKKxt0Du6988Ih/x2nhZwta3unArYdQsFnQJojKYIHpMcoOwE2rAo3r/p/hDCFIhtf/+JwzjjplC7YeEdi8f7/+XTCDgEL0/nYz3//Lh2gXHkG1rla3hWPLPx561VZvWsjBAP9AQ42DVKqun8NwOPPdctYn/GcftrKMVv7lwSMdYVwmEjwrjOC4EiSAaKtDSmlKJSHI8YvToss2/XtD6f2CDjNLWxSjQjKBAB8AAAAAAQkwAAAAAWHgIGcAg9es1YI7LyEHnd977nx3Ebh+vx99yZ3xrfs8P6cAz/fNFJlpMxDzSLdEMPjo6P+RLjgucEGaIaV9ObcOzar+nx03JIxwxUuvqL9+PxUiV7l3hxA8K9k/t2xUPayDXJjWpjxwNAye+vDxP+ryftOmSy3XX4S1t39sVD6GxeMiZuZmDK4zGR/UiSxvxwvPwd2FMIem978Zn9s7HjQrrev30rdYe2CO/e7WnXJ7aRBFD8PyMVIkNPlRym7qO06h+Ic/CPBHPbT1wx4fhuHzii/Q+tRkpeOu+QFzi8zw5P+/TIX+E7+TycNeqL2WQn7VWK2/brjtrnB8oKGwR0MImkQiMCIie+B0Ig1k+ckoFA4jtYTxqvv/+GNdIR6b3vUrpMZ5eG4R/ezlh9j6i7+Y9+ELDkDGQy6VBl3h9FHzEeiewsnDISAg84VhlLQQyqYcSf75g4Onn3c/4il334S52Hv+EJlOsI3dSB/rgM8Zq+pC8Oa4rJ5PMoqFpvxXlYDa6m1jk/VPu+79ZVal/YTvTxg4c3LDs+32vCOTrPePJizhWkK9V7txBP2kmXJ+UslFkjFn8X40IEHp8r4fpzWVoI/t1YDCvZP5uExWHqZ+HqYFHostb5PHUxpexlfvv25eRrfahil2payV6w7qCinGTOntQlyeVgRxPN+sTZIes3Qm4oVEMxbhxdRtKGpC95G6QrrvhbUIyHCW180N+IHQcbiIo0JdgQBAAAAAAAEJMAAAAAFh4EBnAb1esElzHy06/kr1lqWYiYj6w33GJ/1y+6jPu0nU1YZXTw4iOeabdECPr35ufcMa5hfq69737mzwxkidz5YX0K347T8ZCG4aa+zVF9LuWlebtVx/vvw6g8EzwJ06jK23xuVvvfTWwjKxHUx46mYDaxUBt5PVXwWdSAgHGhBOdLMv3nlJ6yTSwvuif0vfH342J3wixGrgjqoK/HAXZR4OrELlL0t++0sdIaHBkrgp7f77/fEBO1vsdTcVmUSeTps4Z42Vci/jiZ7Xk+vryk+7bRq12iYSb8kuqsTzKe/J9/jO+Ot9QLXGQgTqNP4ytBe4EHYPyEzDvZ6iwyFvyZ90shYZ1voTOx8bTHJ9N+J9Rk4M3iKiuSA8KCccZUPIlhnpP+L6D4+CdpjdAfC5P/RbPlaFqWtsI9ht77mVpF09V+QRHUz41d7iE6jMdpvCI2Na2OvvsnqAmivhGM2fnKWUeF7+ncTYWwMmewnjCC//7w/SLNDdObGefCCr/XbenqMhLhmI/GQqGPcsE/YNAbJMCIHykrcL1+K8bESyfEpjZeSdq5FX1+Lx5oXcQWD5P7ftmXulhasRJWuvXb/ss/vk9JXx+PNTwVNFTLgmbfqA51TV5Hk8h13E8FHUvQvHfe+E7DmG6r29l7wpIWXVNEZb9IixHtm6DzF/GTbzw7j3Vc9rS4fe9cvP5NPDo3Zwnkmr2ibn/3WpsVDGaO1DWaLzOvSyYbUycRIpIjDeSMolR+GpCxVErUN6lbJfnkjsOxw+bXnghtTa6UIbiICjQi+BAGAAAAAAAQkwAAAAAWHgYGcBu1gmrBPoJHhbKGxr7frHXhnU9umQnPqGNcoz10OlrrbCOdRNfPnek+H6xFEh7VeWt1n0EPTp5l+F9CsNKZadf0469J+z+65PUnLpOoqHVM2sTKI8Cl9DMzr4lwPokNvjzaheiaVl+J27nf64jJfLOi7BZOBu/g6mT6Bz94fM663CUPpNfzhuB9U8dze0e4eVT3p6eT05GvUnDusnttzEMCfT28ncNJkKTUn9obS23oJTvda2+Ogta4jHDx/YGH2ZnN095Ftt+lt7FX3MR41WWUm4Z8+bAuuhfhFxfesZZUUn6kSbj8i1ShgMbRL734R1YWNSdW+/HgxeMhxFkNIx1dD68cnrxLcq5/ieUZCNhrS8W9fJyYY4+gsSkgO7b2SaZlyoYweuq16N7rXx8suV3G218NvfX9x2VRp6Zen2uI9I2rhAuBJ/3hmbWqr1729Lpis9Y8IhqP26VeiFeGWrxFou71a2tBCgzQ9lMudRyfVdlxuVai8ZQMZLn1Xew5h5Ka9x/otpJ+lo/2TuETDRv1vCsQJia+u47mZNW55ZVehb29rQRvsyS6BjhcPrTEyz7tIL3+XvDEEJwnk8srpr1aX5d4qGm0zVeJkVahsnyXFMveJzeXk1uGlrE0uZ9qSTc+TFQi9F7r0E+ozVCsQ8XajtSk9mWiDAlwxW/mYBH5EMG0r654Q3CTT+Tb9X1uE5aXv1T5sdvuXqN2BEo0NBgQB/AAAAAAEJMAAAAAFh4IBXAb1YK3v8p94MF1DG6rpSfV16wQbfGRL1RV6aykjAyftLCfl9/qbRem4Y2JjNf7dvxWf72+V1WCT3uSTzKtjpIZok33cinaHd+sn/pdLrvJFx0LPoBPDv/1+E+7x2J+/wS9JLaGSI+tsJXH6PjRCbD+H+PDz5EEJcHtnDiIzrjnr2uoc0Sb+ynSCNBlZHp3zhAFFjByqwzk92vDvmdOvYsggY43/rfBBDtgzZqwdT/SwHbyRxw1Sv2dVwU6AyyGbJ6Hx2eY2/Hr/Kyf10Mzszsx0aFJt15VDGssvTK+l8oT7hgJIDPnmqUz3vz19D5dicyHeGEvZWGd3wRYglRo3KxIMpsuPyBjVKni7Pf+Pgo7b2M8qmxkaMXD0n/vdGn7T8Zv5/jYKhBAvU3/UncqOGpeXDG/Qmbw8h6MfDu/8n0U/PaEk+lveXjo6l/jE4anmOSX+Kzrzru9edcLa+L46X/wzD703c9fQ+6+xN+Wl96QQ9x8hXWVQWl/dqsFsPJKpJU48fGx3+Kseg8eEf8Z6yDZBTDCHAlgPA/xoreT/33vk+GL9y/dBP0VF/3LDC/EeETTSpjJF/CLA4nXcnV9PYRpzIX3ywf8ZCXgq//k0hkdGMRejsM/+j/UXg7hAftV2K6b30T7p7GR1p/Agg+Oj4R31KIdck5wbFJw3zXIID14z3r5jpF8fE/WunfExz/VauXFetBTxnKV+OpV+ZyCnZb98b8oWmOHE3bjQgnTXUe2v9uik4Z4S97l+9CI3c/4/KehOr9/VcJ993fwjh9PcuNXaxmGGj58FxeHIbgvrhP/uEJZShAOPjKYSqzllUvozfhRDQozS6FUOm/Xr1d8n7rhH7x4bxlE+cl8ly4czrj8ueyyYsDeWnmb0S/CeptivJOkcu00WojmRFIz4e+8tenifftQn/PGLkhvJC1mhLic7IaUy+xQvZvNCGaoonJiLU86lvCOGbkxOaubGDPkn+Ce4vTvhKbyxN3c3m8qnWP3yu79fUZqbghjggLmMPSQfz3g0uQnRJxf7W4rljf73kiRHE8FHc3rVm6bNP//qaqvE01f4Q7hnvFyR1yYfcurijRriBAJ8AAAAAAQkwAAAAAWHgoNwG/cIlvnbOQXx2JSw1EEnM7jpc/hHxhLvNqf9e0Eb/vefMnfjKZ/NVny00tbyekXqM5ONExtMVvw2xJkaXJ6Jl4u9p58y8XKR8tH8va8MrsEWBD+P6qNCE+vj+G57fX3UKDRG/yS8Fd3f70/cqyuI7u+X6jO3S47H7e93KYyeQhW2QgzSShN2XSonxmNO9le+gpLtekpxUtD/43TZMvEZ48aiLwbRS4nx8dHz/DGybvL6uP9x/D8z7q10EZYDunHTKrLS8ONKp8ZU5NZq+h0jH2P2JR6h4TQoU3MpMIYekv5f94YcsV8UuOV1ogKtipclfhX37hA4dIP+3+KnQcqBjrlzqbFLUMZRL7kUNUkX+ojhTxXQ52YrvliGfM+EJ/zd3qddNs2KGUypKeNr09fl3C+U2NU9WrpyeSnVK3Pivc+SoJ+8CDc4f2QORA+vKvKvB3YiuLFUozIF8O0wOz/m8tM31/sD6BVy/ymvd92oJ7/gm+2pbdQV6w0nmDZE/vOQeqqO73+WAZhRUtTZgGGYNj6gsu9ohDcP5a+Uiwk9VE3E3/Fq3sZx4g8r+Mxiq9Mn2yiye7rjJ/hOwOCZBylj2my7GxhfmE1/GExl0EeP042d/sMJuTkFBPaaKwvGkz5/fWv8n/2GqeA3f+ev6Ey8dcegmpHJVoyevQcbEQVfRPSalsZyVDifd6dhwOvRWF32Pv4+gvAn3IX0HdY5IIlI1avjmZPV3z1a/+FPDqLkLoB/NJ4YCBZvWXE2awSNsdwpx1PTeS2E+yHbp142PkrYYj4IF1eH1W4+gX4er7YTOFdU1xNNqbG7X/2Unq7qNvo5jN9yqdrtmQM/x/QHJ8bzYQjKSZ/TP33z5OP8ZgJ1H4fUyvTFemAoK5NArlDccP0FMg4xqnvlvSGYbi6EYyJwb647ysc/w94dAo+kFs+k4gVynEj7vom1Zk+qZWUbX1apMHYNb79sYpFu5f9/BNu+/1E/IfoZ7jQiP0Ugalgm5L4zbt6Y5LTd1Jm5nMmH0njcZHxRV6Pxo4muHeroRRUORfv0zMy3NWGguEdRsLeBvxW0xL/PfypnSL8dvmYZb2PVxaYx4KFBAuBuRJKstZeqX+tx1JCFeIOqoAMjDiDT/hxqR39YYEDrmAjcZcmLZgcKkL393RP94NIYd0JJB8jM1NsuO7iFnM/46dqToxS/9LrRPW+hVvePXPOvJ+035P1VzQfghOOcn6DLlJwVDeF8Mk/uvV+2TczI9L5fb8d7j6e1Q37nMeT6VX26jJxhQw8lu2gsaHZ9oNUR9h3a5P1rFxoHB+8o1a3wnl/zwnh88MLusQw4p02apoagZ10y0l1qlydJa9CsNyXvH38ZaeG5+0xzmL/Kpf7+nT7SX4yE+D8q0ifd4dwzLMkCSsXr4+FFURBwrI8cDTJ/vCw7jAaB/Kpw/Sf9IEPris686+Xj6YC0ma6trsEUb6r5d/j8vGV0EbONyvJ6X/xm/TcvbPDxwaIfqt/2TIKQ+i+cn7l4qMhsryGh0MHzEaJxfGIx2Ydy2rWT/VIZj0h1Pwm8cti7mYxEdQeQ0rzibFY6t69Ceb+VSfjIQ/yv0zKIwy3x9s0Zk/Fx59qUnTp7LX1dHHfGzD4PyNxtu1vtHpq5I5iwz969LtXxQ6OjLx1x+mEDu7bYP9sr9z19r+CKUVKEO+twVQ0tyR/KSKMMSo1jfT8vtLi+Ec/beowBzr0BO3x9A7+FHovoTV77+ONfvXaV8n+X9L0CvL/KpeZDt8Z7WNzi0HATeOGEkke9Xk/rx3VmLkQbgw7Xx+GUKZ+48XePvcZHQeA9Def2FFD893ykEl8ntZOJ+EeG14ecW6RhLcXvS6hOcdsgkwktB3l4S6pRux9M9f3pernTBXHU3543ve5t1h2ihd6SZd39r/2Gb/v6zZuiCK+99igR63rzdk7MvUziOXEC+8v6xXGi4SzDdCm8Yy1xmvs/rf/wncz6ZvU8II1aXUfv73X59+T10cKb7vrv3b4Kru97+Uxb1c9XmxC7JLXhyMcliZfzMv+FO9VX339EZKSZRUiY51eJScdHrIU9ev4gN08cMiuErvffWE/xW/G6i5vZY6vz2o9dRUipMVUmSJ0k0cqOKqM2mbCWI8YE4T6QvSDBgMiKN4q8VJKpZShfeViX6/X6ixXNIUI5BRv4R51Tlo0ODJFoi9WIfeVLZ6/ZeXJEBzSINBDEinvStcIb38J+4J/933xfqq1P61ZP+mNddjtkIMBNd584YShDuJ3iOUuvqo0VsgQC/AAAAAAEJMAAAAAFh4MCcBUQ5g14svKba2n4vlyMkTTMBe4rd9i7IsX2unC4rhHj8/7nGDtG33CfknHX27Ipq4v3c5j+LjfnwqzD5SD7i4y0K2Xki0Pz+LjLY0g9GMtHVy++8PblyFvw9xOZTyL5kaP9YnUMb1yBy/X+yrwneNg8Hvc/HcgIBhhdZsjDy5jv4yMZedI/jyHH86WbT8czECuEHKZljKb/wjY869a1+5ZFXH36DzpIyY59RIjjtm8jHia7c7O6y264zjZ59Ph2UJ/Y1NxU7F5m8JiuRU0CfDjXueH1Pevgjkak1w5IINx19ZyC10uv9u3w/vcxzhpDN9NAna/kLW+h25yD4PiH3oiUIz0d7X43E9ggxx9TTvtDwQf3bTSBDMT1iEIv9HJ+94U5o9SSNkAIWuc50PMj/b0Eq14St+eVvjPc7HybLynmLhfSWXoI9DEK97jJl38O+G5QpWPJsUcur761WKjgzd333V99j+/wT67pPSSyDvV+FL/tkpu6bGPhpyPk/pcb4+n0VwZz/o/+LhNO93W//hHwRNM3Lfu+tDM7Pmr/htUHAr8cJ/1fKENAasIL9gfnSd/cZUmaDre2uHCf8v7E6qna7fRNP3vvvTuCHgmuJ5ubuT8OHxuheIzHP5zJng/l8ht19/J99RAdv9i8IHKfMXX6HrjMoNHQ2+Gob/5B361yeMxtlWIjQtfpS0hlVYlNx+3fnurCGvCbu8S//clPpCoZakoDb3fa6FVKYj41ESaN+b2ZP3dR/bdCcayf7aJ74Frjs8GF38Zi6kLSeiZPJwtr4R1kMciQiAaN1Zs0T/ibWY2cdW45JPU0ufc9f3rhLeX9fHZ0XnETtDA4cg/C7VC4/yqK4bQ9Tx4WB8ZxkNweWpmfHwy4QX/6wL3R94gENmh+3+Mzr96nUeF+IY6CrvJB3Fds2z1p9xj5H+iklhGXXL+976qOlg+UgyoIJW5tv+M0t/DCKUP8zHoIefB7Pjn9zpOgjDjMPx80BmUbuU964zlEBQYfQRf5xBjiD8MNcfjrklcDdCxwqdxfDrufKqJ/lKnDC6C+dLGPyuePX9LTJnr/VMpVqovve5cfBZjh7ukcl3y8aEuP7GY8d3Bt8ZhCZT7UixysaZOE68sfv0T1DPho3vkjIZRbHsPZvG2+j9juEICV+jsb7yo/C0pE2D4/GD9O1B393/FxguvYHtyVBBvy5u6Vj/bqnBdnis93OoRvjYLPx3LMGAvK74UwfEGkMvL+wowWaZP9PNbHaE8dJ8D3msCSMkF6HeuIxoJ+Q9FdHz8M/KICCfwGuFqOJ39lhV0IE1zQyj/P08pwTx/Hlg3fhXD1PeaO/X+z66jJmcsM7B8Ok+7/GaZ8aTsOcYrAczfjPorGF8UJyBfx29IdepcBwDqQVFgQl4bXhCFAj6W43u5PRJeTa7SXXT/4yEfGeBhz+cMBjZfkGGJpz77n/fH3HQPPvafhPm8vrk3cHUr3BHn/LeFhwKbXnz7t2x3n3lzffglz/idtFFk/c80RyseRH7NVkCd9NPuVyZIT11PXf43JNIElf3CfjOEr9d3kFd+mfhcV0T5pfE+9y/KJcNU06QR1Gap2/r4iqr1U8fV/MrzUaEXMNx9iAjX38byzRcmufDsdJ+FW9+7u9fWD3ricETqrLiOfPckT6XRwlw8uQ99WuzfExnPmv517i3eRWR0wsyjZjvCFaCMaueu+b+FgZXy37zfEc2nyu8RdDedz6hCK7F/TJKJnU5gwc7exa9EviFfourYcXq9bknziOL0L8EewLzjZj/4iNXtjPaa5BMdEL9ir01eSD0pd3qQgnv1UQqQb9xMCjSBaBAN8AAAAAAQkwAAAAAWHg4XB6fTBAe4FUdeoLSeSQjlhDzwbfgeXye/xdX8N03gj4vx32mQpnJ5i+poXgAT/j7BELmtUM4ZT6wH973x8+Dhl/0+9ahDx2a2lYSL8I+4bVb4y188C8Xhllv0dVhIdep10M340AK8PJdt9gg+83qM3onjmOq/V8FEu9Utzr8Z3pNP6Q6Z/tshAp0h0YetxjI6v1h9cZWmbfBXyCCbvYaxxyc0KTZ6+My5Pm7b/ZZePvqe/6iBOfoVx65ghh1bj8kn9U1jteCq+utd2JU2o2Wo7Ofb/nNHoj3XT/J5y5CWM7SL02FC2cWAUBKidmVk+UKeOmT/ot/UMZhK25pzIfQLMrF+7oew2RZbNwQ3/S2yRyaXjB/sZVVbTWOi9wodS8tKiDG+/47x4T/fuVAoUxPr4mGFyKz1rQZVrZpQR3UnfbdhWvpGkVvr+/Zx2h2HretXNv42JCzNyyflznr/RBAVz5jY2Oj3TBLf3vtcQgRb70T/EVqkMyUkwYMfftjlNQIjt0QTIgW0vhePSjbGZoy8YprExy+O0WJ2xiJFcdlBPjtKkYlMixPFRPiOpQxe+ELv7g8LLcD91/qN5a6Ry3fwH460O/Z6f0rh6lto90jFH3Omn/h/bzmsNoervBlf064U77l938ZD8em/wtGxhb4sG8x9z7f89faa6kwpMz1M9+M3wmFc25dAbvPu1cGHPIbbf71Pu8ZId10BOYEZsrIGw77Ctb83GbFMZMKKf8y6IjM4YJ63pj1fht1nr+M5DGJpRJrF9W6/4MYIT8n1UIcwZ85Kn2+CCAi3R3jf4lutNG2LfZc9YUfKNhAxf98Evf1x1NhtjAP6wEDuOVfA6ughaj+/PhHLGNyd+Mtn4dudFyCG9+q//G1qZjcv6pTdy5w30vQ8ikdmJu381/scn9Pje5i3bL/v8rDlf5l1DJPv7EqsdBC0fcdk/6IUNULrYBZw0v2LRPb0ZIKejyKbQxZm/88MPIkjhrVtAg8IOU+egpQicmWM+vX+9VZfH5z8dh+/l0yElsEskDo2Ag+FY6LtgtakIsgO51C+l1xEtNIkxkP36ifS5z5z4a4jxw2HaCDQE+J+Tyl9x9uZcf0D9Yj1He7/urq7J+Vwhh6Wkgy/bZ9emRL66Cna9xuUvaP92EnmLUljLL46Cq2ovcaHX90loZCByn/EvcTHjPomE7l4SBf19g78bFx60djYrhH3wgxf8K8yR8x3KSifwfRPC/COfjQl9nKMHjKb3RomHnRqTHppalPcrI/TlkjN9aQwsdV8t/y+U08L+h2kaiTKAUxOPuvpHUeT79QjbhhDWtGgZggGLHyIfFQAvxsoguOBq86taHgrQE0SEszxHjYG/6JHBvX+g09R3UgZ/jMmOBV0MNk96J88H/BxC/EPh9PvAmevDObN7ofWzCbSMfFg8HKxRPVW1djypMkI3e6xvO+/j7ly5afVMds6jvL4yMW8xhhcZ9O46tBl2sXjpu2tg9Lr0xlvPRklcGOIt+20l4y1Hw6rB07dlxB6Fg3LgVhri01gVH34UhBob3gXzyhA5GNuLBNgd8cIAbo3IHggDshr4yjQGOFuNarh0aF5gGVYgogNfN9KcRk8zsoMrH75xIwrlFd9Sx0dLhV4KaMhUU9SdUWEbp2+exoD1GwTP2MqatOk3e/HW0g3+7XhDE9LI2/UkIdp2fPbXaWM2i+5Ug3K7PkuZyD+MmMhxvHqgxX5yfSv47Dbk/jYPacwIKO2sFc7HDsl9Qc2pMfECIr6+N0/GgeBR+Hssd+4YJM11/J+vhThI4O6B2Ef5RAT10HQxBtwBDRV9y0EAU4rj4yMDnS142wvD6TRxnYHRS4B2AX3wGrphB1r+v7D9k01TEDLtGzMI9SZjQxPnx8Eswd7TjRduYe+CbaOz9LLpBDu97it+i3Gednb7vlZHV6F2Pn/e9xnmZjZwkF+f6x0IppuiU4DSXvvodDayjYdoYyO8d7zGXf0o4nqTPrIcMmLrfeGOdAVI4+tl4Uxu48ID4Ru5wWnmDAWvmHhgUF9syfk+FPgro9IAAomo7ewfEGJfpeHAxDQWM75P0lcdDaeN5fv3vuCjf3du42kzzU7+aWqXYTXfhXGh2fA16cr3JfsLk/WKw9vIIFkGF6CVs826OxtPDUHt6jhwoX+0SPiBTtDHIj8pF6Qn6X/FU7HPkaM/sE+XCV7VKGPGV0+B9J3aHcv6h2PxnqOxHrU0tf79hTSmQUIdTCwRx8hKRwexatsMONr4d9qIOXD3CmMHdaoLjQAA61/k9/SBTtaSCBdfxkF95ag/KPft6hTj6FaQ+HGaJQXuwhkxx4U9+TMNIXxtl2/9to18/utcNShQzFfCj/CetfKTzP1kJ7K1XdGhuoIkWMzDu8ssRlzcrvm3uGD72xGJzes3xlfKCG+vQ3SO16fmE4QyNa9L18IVrVfrfJeIV4ZlFE3l+yOMJn6mz6qiREuKGfpRGNKWJFK65MT+2EsOOl95diNa9Sc2tQjryrsuILsWZM9/31AqZO5NWqrQWUOq/002276vubVjV74JM6iMjQd7E91vcqyGiYYySHGY9v7nSZktuf1kbVjL+1ObjYGAL1KwXP9Cc6iVRKz0EQYrLiPNJ3Ll5ddiZXkMsMC6F60Y/v6FsQrF35/8YSrYY9kGbWfzH9P4jJnW1XXwnjub9ys6oevc1ekkgn3+XH8gLsv+73Vek17Cnjwgr70isPvy5ylV4IvGzLC6jSVmBARAAAAAAAQkwAAAAAWHhA8CiLu2JU3BaJz8CWKuE6i9yy7Bs9+LuMueljIXy9a+Mn/qEN/78MLiQRwS/i+NxHHA3jgsD0uM8I+LttI/IMuIQQB9po0FO55xXFCI4u1mOu/ri+3GiR/Wqi5s2tOqi8fHncTeMKB3GCs3HOsI8IuGo4SMUxYEH328j73wn7BFNtG25PJKXbGZoysP7HAvD+7c6XEd4S4ZWt+9GNYnh2C/5A2L71AOusBIGivFcUqmHYDd5LLlq/2VTFCmf1fzSb9br6tafFWmseyTs0quxUyA/yw+lMuJBXhb4XZ/DdMYr17xQrngh3h2Qn2f4mO1VpFDcvHDT9Hr/YqKhATVwpsiSEnHyR/DkJdb4adEnkJpUCvOlRyYq7QwQ1BXJt03dlD8aOP6F99fXmxYy6OmUUmver1S63qLmI/DtjsOx1NkBTWnjdnWFlE9uvgnxpPuSlZ/qmD5N7mtjfhhEoF/9lyzpK2rX0f8IQ6l0HB/nYKohrvrXIKz9OWEwQRnLT7Hy+IfMP1c1/sgvjDYA4o0T3Vu7XeRelnazFpuvf13F3Lg+b7fTk+kFy8EnbV+iAqu3+SI4IDqED0GvYQ+mcU3t3yCulBTYzPmL7JpFd6cdoKhzeOYdLyzGiuKxoXxiTTLkpmVJwd6Rf78oLKUfebPjzh+3s6hD323bHAP5pwvZeSCDuXHSGnj/rr9Bfjdwd6e0snnfGQp7X9hMLwh0sBY8FfIv4NE9vTMwV+XOnMbAe6BDbNqaM4biz7D9vEwYemvbCS8fLh9x3B3KNqytGKc6SmVQWUKsMHG0kEq2cvYbGnNsMPoAKe9bQowIjyyfWuN/zQ4EWs/xq389KMJu/2bsdeVWgdl51cl2FNvu9YhylSWw87qVyY0Z2KQEz8kFlQur0kx8EFIqxZAjTRUQx4oeQfD38vrs/+N1nZYX6+l66LcOdCvJ8oSfagzoE19F61DWeZz6kfB1+n267bUEECMbrD//G7LUmD27Ty17STcCf8nC00XZdFfnGZX200Hobn/EieR9OpTetfYP/GccEQ9dQCj9UJ+iwm0Uy4lJ9b+T9Jqx/CHHRoz9kbk8kb7KH6lsuNpra1FnUw0wQrIT5Kr6b+uQe9VX+x3xA2a8OXecEJXbftnhXTmDAVsvXa4Wk8n76KG//W9+QZfyqtOVdRQNSIm6XxoKZUUDHGKFbBd0y9vN38V6D6Du2gpVUlE5c8JXL3PpLUCY1oLPrmq1PUdPnWIXRWcMB7dX9Q/xkbZX0cB9Yu3+CD4HfnXqvWgRzf91G4Yp7UwExweir/chyJx4cLjPfouT3shbDvTzS+NJrvZX69+MkCZwzh21A1tvteKiRuwOoCSZD+N0DD0WuahNOOUG2Hz00wsIspfDjGdEpx7hoeLYJX+/276F772+dUgPvxtp0My3xo47zsw25FO6WA9SvgT4uV/fjgxWCuuDd1p/yeqtQwMo0m31LSgDekv5rAW/vp8eK2dVCZs6s4X4rN7zBAY+A5VSCY6Np7XhfSUrq7ER6h3bOlViQxkCvhDonJowzSq+y+56+g/mjN/HGhCzolu7oGaP/nr5hn21VyT+6fa7gssXEe4D97AjYmGNiu0ngr3MChSZl3CnOhT46N9wIA7IzL8wbfXYzjgIL6yCmYcLBqVxaOiQCLFQmo5R9eHIyY5raGJ41YVNnQu4QKwXawNrxd2pHwk9eWzS+gMgNRPOFViEt8eKxinjFFUUC+hcaMs1+qMNUw9hpVJ2Jx6j2ekZt9KmL/xV4cR/Pnr4WvzbKQpL+1dRmAUbpb/OYoKPD1WkM4J+jiJYL52WXQzyLx4YdTRpwTRDQw+H2X6sUilLWjk1GY0yH5KxNZETpbiENpTSFW7CflmHg6hozcDpQtQ02w/oT8ZYOOmjq5u7+S0T90owAG3BAO4gWTNHGW2nVaPq5PsSZyFH5xN4IA68ctp77HmIt/KMx24l9/eQQfo+E8QgAB/sfzPhxWYXqP8O5q1eWmOMG/sBh2RjadGqeBK+cVU8KKO1aGpKsVw/nZ+5BAt5HLp/p8ZCdnWOTj09Bjjt/r4Q8hcp5QCnap450Oj8Fnpv8v9uT3eCz746L344PYaAfIe4n62+MrxoK0h6Jw+pzXAAZo8FHpjThpGvh9Y+9WelIwfxkg+Ha+ogOvVB3UjyM+MmM3YauNe9fjyjw4G32BhKCvHb8eEy4aURPxkCV0xXnYPzsL6F+cTiscK64rSrUjglOETBt9mvwgp0+1oTZ/44eYPsJb4zj3yEGXzyhuVp8nuXeu0Cq6tvdbvudV66Q7eoKS52ZAy7+mMpakzhgTdUidUjx9PUX7TLGpjxlPG1LgeU0Mi1QdT/XauPrwg60BiQXgNf9qErMNvSbBnn0CgIKO39gfhxmaNOHVCOctS6A2B4bYS3CGQdHi0YEAVzauCArTebd5feTzpXQOyQooO4VqCPGozudT19vulIq1y9r5pvCOG3efsMbFvukOiPJ/u2M5qvrYZlJQz58epft1Ge/pSjg80LbnrJ/6jI6XP9KTUeTvqZbvhpFE6rvwRShRUDh8XxugwsnK+K5PBvFx/WeiWr9j9lLBXCkhSXfEcJdhvXk/en39k9X/WoRxgurjV++bktk5EDOE6XRQVseVqP4zlv+2g3cnCndzWXGb7jeiWofjst0p6/s7V46Ev1n89D/ftDo0c6+cUEUPvl4kM+N9Pbmp3f3d7uGf2hPHTHuZmxPFSdb3uTNLwnfhhH8KuagQPn5eGFJ06mO3jr3rsU4fFiJN6Q/fLjbvjNXogTrysevXvMrczV2pirXS9JqEBWXCwUvYKBFgm8zNiFe6Qnw/8JK8uUmM3vz9m5pvfPVlSYyzRjBC3C+m52I6Ija/3Kgs9X4a9Rfh97dK9VcXl+SXNT+J61WpkzznotPXkG4VFWi9eNXuw5VfycJd61WqM6XL0rrJbXoQh7LCQ8u93aCneHes4UZPD2HhgLVG35RvcvutwS877PX7LWKjmEPXCOPkyGVb0+o2ElFcL71dCeOiIdXR8Q01ZhB6/lhQnCOteEY7/CV2t3T+CO9VeRY7ZPG2YXGR3W4wfX/l5Vr7VlTFi93IUFnrPvWuq7hypxrc9ycIV+N47X4jr7kJ474+TGauSpe75hWT+kWPHV/vj1zk/niLPXr9/I2yGyf5RvUKNKhIEBLwAAAAABCTAAAAABYeEh8kMYQg8wwO7QmfhQUnCx+Bvg5p1cOa4udL+G7/NE4uMF15DZ4ZPxFeWJW+M9n18cLsxKU97Nz9Rnp7+ax1MfQvP3ghuLmv7IcLrwjp9VD4sJ0XWRjNSfGThpB29XafosqCGSdfJvS2TYyfPypBloVsiT/33EQ1PKqH/+sdPpXqP9O8kjD68nP14vh/Oc11TMz+Lgd5onha2Lm79xdNllzGcjNXUDH6Ly49RcntCYy3m9XMkzri8XS5Cay8O80B3TQ7+4uHeaE2WWy+KdA8kXHu0qfTln7wQBAt8wMHiuMeLGfCNd1ZE3qfPwx3LmlX7euEJsPku9y59+M6W/HcvDv3HXHhxflYw2vkGggPUQHUI8eCDrgr3NDVAm0EjnnYm1zTP2auuTXVeWIyGscHsbUX+FpvUa7BN4fW40aCxa5U0u28WKkUbp4ZazG62jb6i+8iX7fqcn8s2J1oZIXByJp0IYKuM1oh6PX+sn11Ym9tz/zKrJHwgHr+FKL8PS8BlRyL96Xf2Ov++8MK0bPFCOO4Q5glHxE6vHv7FR48/efZWPCXZPSuXH+yvbtHSZnS+wpV4NyY2BgPpyBGMCR3ixVxnH78M91VJmRFY55W0WgjOvHkz2/e6WborsIa7u9+uEN+r7YaU1vheVhx072hgM4QBD6yL363Sha+hnS0skVv/4Jq/bJ3qN3sFlYIjQlZ9MN/emPTGlnPisQK4jhfQKKET33uz9cPZfJ6vmhDT1nmHb4+ul2GPWPj4gfYBiCXjWy9F0w/dPqIOxYan3/RSv0C54fvDWXeb5yCjcB38x6+3oKipQhjhsDSxddxDT5vwaMCQ9a89lqP+A7c/6BZnzqT9037SSZsA/rGsgR+AmHceoK5CEMIb38g8wXhlPsWkvD4UvGAgfDli0Hko2+NMa9tcyfSSthS47M2d0WHKFfFRY9f8otzJ4OCXsWEiRH3qs0H+x8bx48hxCOOeEzARUa2JQ+YNcn11EZ3+Mg3SfWcE8HqtWDfj9bCmZTG0wVyY5T0UdTIKY/FnuNSKcTCWGCf30CBTMCrcPJ+PDqfXovumhvDif7IexbOeL1RU9X1vL2KOCvK8Tn3r/LFNX+CCJq7FcGfsZaOlB9k+Dw+QBSO7yPAkEAMiKvx0WB1ahT2juGE+P9/8sNvjcAR3V6C8AO6stc4QctKfE6drvPIIrH0hI606P7D9ruFPBjjBaaeRxg2DZvUnp/i1BVWEWEnq3qev0fJ6JstDasTrlMlqZTOhCgwM1cuj1AEHXJt/84cMuti6AvwYcYMHXHDOoywSv+yYvBhD6mX+6suGKR9QWib4yxou8WoP5POrrqRcMcQrFOgt/jdE9/wl4H0Y2cKWxEH4+U+4SKxBrsvXJd/wvxo0SzYs+XK/Rcn7d56/18P1I4MxtzHBXLqxeP9FX28gz4Q4773Lnl6aJ/VWN8dHCGbcXkt3cGKqQcs5pYCq84v9l4XhLw6DPKViAtVMOel/JP8bjqBVqDdO1aHhXJWgiw6FnWAHYSt57NmFDbQoq0+3+NgT7x763kOLK3vVq94mlxWpL23ocrGIXGGzcVXRfSJfJaOfr6GRLTx0bDqjK0zacnkP56zIDYHW7VPLMQf8YHt1T5QQCgP+M4aT6HWJ399ygzkH/ctMLjx7v+EJzUPRT34YZ6+nUZCZPGKBnhnD6ULdBfo98ZG/rxyd+723fpaY/fjQHBxT50sh8L/a8O5cf5TTPrpf8FXC68eTvOqDuCeD4yGlm8mRynIwKnmbGn0tEVAhQ/8ZGnljBAlc5kdo1Krr5dUYZT+JAgIx4X447deEVA8/GfWBZDMPGwD6pD4y/+YuBBLUKIImA8D64zYHD61p3RfB7+6K6QcxUNbV6pot9cEXjFHhfhHIH/o40klUG/eceJ03sOnEBwAyT4TmXOvGD3ociSxdK3rDGBsn0/Yf0rlNL9/U+v3MZ8kffve8/67axmGVWroMR5fLdv085i6CEb9hy2J3+MxtC/pxsTWMjryiOmH7qfG8w4YNpIs/KLDlCsglATRyl0TUB4MbQQBeoI+Z+/lyQq6v2+YcE8K9gdnKa8b1NfgtsoOtP2UCzzNhv82Hs7t+EHGvasf/x0Mofk1FjZz41LrAy5iwzb8TyqdLUeEWdb62CfJ5OWi5MViBkL8fjYmQ3PoztVQQ3+Nggdwqt+h/gq6rjdP+bhPvXqoU5WNSR8ZOLkuOm7ziF9LQXxstA0t7jkcEBVNR8zW3F+30+O+m+UINaM/hMwDd0Cu/alw+nS8PO9c2+MwIX36iev8iJEjT/gyID8nisXtcFVIiFLnj1e8KFq9MeGdGk4aRCtPtcZBHvH7wW1w6X5B0vZkHa+3Tmh787BLlWGrY5mu724dhhGnpP/cd+PvxeH21BtODFQVf+OmS90ZUZyl4MGI1Af9jI7c2iAjgbBx4PCK0JL1iijRX9heEr6G+G0/0F+M3v35rd7IS8VI2FePiZbQTTLx9ZLy5PjX5UFNt7XPj3cv+kyf9uHps1TXk/eH7tcvlNUu2E+I9OMgoOoFz2EZ2HRHYB/MyoGHwPX9xvGxAV7zIGHTsrYklcXc/u14Ut5AcRhCnVVP0djHA/Fp4GJn3XXjIoGL8Hx0Pp4loN9gI4vyGfH4bKX16GQia760xRoIBEPsC/Jv/1GBca3g8pEhWp+/k+HfhGEBuNrUqKRZVlyk+l6COwQ8ZJISMG+/5tRfhHmXbNAlfjJhzPlxsdH0uFJ1IH+3TPv8mkE8vDU/2sj4acNT7Nh7QWXwU/Bx5MfXQv5fJPjVdfhXHA0W/GSsPRCxpU//gllGdwEz52ywiOFYOmsG3vk9KfgnCXb2xoATihuTGimQphIrlQWX2STisdO+PXNzNSEV/Qq/Gjr/hH2ioN+bZP6SsZ3428Oxdvyf3465bv3LEeQfiq6toQ20YclfhPGQAJ7/ia6InGQJjkHyZC64UHY2tep+FJcIESt9qaHrxUhSMgX93fdfp/Zo86vh7isvKGN9u1t3vPmq18R33uuK973DbmbDr48CIf65BpL+6+CWbfe25yEU+RTyfuXJ/dqbir73uPEbbc2CaMoJb9MV8URX1VMTe/uUVhkgEguqzOWHiAQr661xduuvr5AW161tSGBgvhFqmXXwlv77NOMBHu5cfkI97+P9ehz7Od4oJevH8UxMYLl/WtWOV+GVSHjbX9cE2/Wm5GinNy8m/aNgw9tquX3/CFSOThSnW96uvv3ofe37y+fHxnff7UJvdw+phPwjq1zdV13kUxR4KvNlad79FDsu9Q1/ScEF7jxtv8aBVjYdf8Lbxvu/y/8hP/MOCmyiEIBjiySbOt32Nx51KpAkL4hq9cZ1xmErky+XV9a2Cu5+/y5qvSUUFWvz+nMi6llgi1r0i0gRyfuhGQoLOMjj3agQ/QHu+fbFYqICV8mX7qM7tn658e+5fvgu1XdffE20+tIkz+K28YEjtTm4Zn142IGvt8bUIe6W/G5Hwp3vjxslhKBh4s/uDUvm5sVSECU+dPrEPd7ebrRRFbflYx1XrjPfui9/wtnSHU99f6bi2rfNy4XCSjSAmBAU8AAAAAAQkwAAAAAWHhQfAUgqU/ND1agsHeojhD3ODL5JBxgLt8JdOPm5cIvgk5vGDvwlwxLZY0yh+3xMtA8kGELF7V8dOMdqOjFrx7aS+FLR8PQdj/OMN9poaL7lSuCiNBCov35iDv1k4vDuAv5nBiGa1XJw1BSMnETGX8mS8J4yOKrGCz3Co71EQrWq2qaSZqXpCeQm5jBT3ybKgvaaLkyVx4Q5RIknS8PpSehBATx68LZ2KcjITsT99f3ieFbDVRegiNKTR0l36FqsT5wwoQyM32oRhhXvUMbkx69NobxkUPp8jHQ7uuvebUL7iFpC/E6ZIEY0i6qRye4RkZ0/DCK5Gr4WHep9AszcbgCoIPvqYo63Tgwhplvldh9U/9rRsBt0DpwL9x2YcUnqb4X5YAH/dOw2nX9gsnnv428D+d3O46XP58aCBOrf+klLTQpmhhSQPq4z9NXjIwMTMW2vPBSEBR3J72eEOTe4W7h6fJFPuYl9bf/hGYVQGHqZzozfcGAkWhq6B43IHzBxb9xqMSksGCaH96WVNadf5JeCeXyqI2c+EzuEyF9Beh2wlcqGb1+MjQ0pP67BBIZBA/v5qQtDwpvfjKGoECc/7F43j4yKXWZ+Dr7p2EvzkZJSLr9DjI1V4ivGWzv4zMRgj+YWB6f4xYnCzhxu721CDY7JFRl+HvpR4EXwR6vSpFpBlgPGIR/0cqCT1fwrjpBakSNadaTLZuvxh9IvxuQJHV0CQXHjVYFVSJrykddlWS7Zv4zRlEHaQRtlrw87/1bXjaqN4jmhv3A5gQf0+bRaAaF+HsRU5iSKXrpJ97fr0Pf42vfVDwA351ug8bz+eG5oeMnjpsvC0MUz+E23Gvt8m40VJGL4niq04SMF+PHiqXHcMIrF+ZQMQmGkN+DCCC/42nYk2IMrtY0O1eGbXoP46+1t9AX43htdBY4eRfHYF8YHZgfX2AvJ/uHojKKfHhKXBKDehvocHwjw0hpg0pm76vX18n/RYq/SGzJeT8kVcttPbyHr6AXdx8PJ0ffDUzU7LfxcdyX73WF54fIUDTBev0KmuMqgtahwOnGSuRqGW7brlEMILMqBU/8n76vsRxeoycU9FdPdAZD7UFL8ZuYE/If3ILvSbChjinhrlq+1RtuEvCMifvg2ws9IcBwHxl9B7cNs58BU/4JaJTNv735R/cEm929BDP07vysPH4uu0Vi+L+HdzwV6dwSPlY/6/s7430MhjQ9f/y/pPp1+y5Pv8Z4++pwhiNuX9LbhY6rI7S2H4QZHLrLfCkhZFB8A4Cx0QaIcAbIj5uAjeqzDe+A+DwHd8bcpLxkFjDqCX68TY9CVkv9eVAS4MDvVr6P4z4W0MQrxVWcPwPnOBpVjoSigP9xj1yEJnGo7tj8Gh5ezz0myymv/3U616HePFX36FWgp2ssufN0/D4IMJuFfPymMNRCoQeRYvr9eT6q2wp5jEkuPFw35Q+b99A8CL7jwU++VJQoaVHF6vyrgqsPtchl3HBldk+tqxmMA6fMnLZ/g/DHnpGT9Yc+NmrXR7g8HUuEpT0F1G+VhlBwDgjY+80aX4DW4aekSdr2ONpg7vxt64chHv2N7BKBn/ccFn9f7DpKg2PruNuP0Y2g4Z4rw9EkVQQCUV/CPfhF380buaBt2B6Ra4T/LwjmVZ7pLDDN/XHW88aTczH10M8pjjx7Xig42BfpkSv1MvrxmNybHwf2/KwRVM+T+/Ck+dUJjeR0mPkzw+N4g3/JPjZ6JoeQoPfvXp/J+QOu4QkVrST4R51TuUV2aQRBNhHKLGlx4e3XjIUcNA7Q/43jCSiXyDO/7jvhhg0Ht7ag/XQf+QVxzHw4pmFrR0q/0qRhm1orcXn+ufO/vSua8vlYSrCPjd18wnVBPo5P76+M28MJO/jAQKpDOjRRcg+H0vjLPYPLQB2uWPmQaDV/hGCMW39lWp5Gpqqz2P6dX+IhM1lVeYe/Hwif/v4/va/Dc9Xt4o2H1M4UfQLHovc1O+H1Yk1VsId7sb3f7NPWM4/BReE7k7IJzUb3a6F46NH4RsS5q2/wV37EJfx2Pu4Y7vWEK+/fCXGBCVNoPk/9x1Ped0DbPs39uT61UZLb1A8PL8YDEtaHknM/fyXycbMvmVvQVwCrc/h/YPwS7HOPE/XCfFXv79Be3CdzzU5bH1/T6G+EBGuqqr1qrPX0f0u61XGThgMZB+66r9+/SXNNPFXv7qyj8dy/vG8m1+x8GGXQafJFIHRdl743l2QooLAmvbt2/UwSBHuYgLN9br39211XFdOm765F7TYswi7+47EJnHa6qUUEN/lx/yIVrXd+NV5Lwl3jeObEWnRK4Qqu9968o7f1qXE35XXaCHvlPb3ZPx1X2PhoPVFifEUuj1/rj8RwRPlp6JfMCbd9+CTj+6m+crHpdQSc/uZPFl6S7gvqgzMM/HV789PI74zvpWn6p01ZB19KuufFiBnVde17eWCXqkOVf/yQjH/fvfP60CKuXvtyIFmX+q6//BZiLMkK8347QFwO2ev5I3wVar79XRAqsV2q56cToXv29p0Nl0vdGPX9lGCu3kOCbfjZyOmN0TRL1Jalzq15vYcjQgMrxEbCq31CfDu8ygM040HeaOOCCWrrX8roBCCK4+u60la+jAwrvLS6+17y/JNvb6tIxYTkhWOHXGGunW5Nq9f0evvyWvXhqEd9Ib5ff7j+f1/pqbxKn1LvbWO3jJj3qUFrirEjxW2f5e+4KNLN4EBbwAAAAABCTAAAAABYeFgvNDSloDB+ME4uCQ/Dw6zesVxQrgSR168OrUXDGEYZwjUEW8vf4LJ0kN83zBBMJQxw1UmN/jKbfyk8OobWMhAWUzx4hw0jKrcZ3ywY8wcYo0nfS3CnYklgX3ei9f1CYriReFVan4vx2g3H6kEJye7+M7RKpbCiyd4z+dEZvjoy2K3l9CDarPmy0x+P4xhQL93f3uPvrt/UcyZl/thXHRnH2h5JfZeQQu+M0sssv0uT2i0rGSoxhsCBtEb8Z6MForaa8Xjk2pGJ3uN7kI6Py0L9uumn/i8blEQdx9u1xcPJvb2W33LuEfha2ni40/HIf13F3kNFS49E+8UK4wdgfa1fCWAd7gArw2iWZmzlnjKCeZ6JSfe9TpNbL4yvfz9PlhkpDNk8/jY+cuWff2wpOI28+ZfkMZxgx8MsHSGdBlSuSbDZtgyX3b2lQUziAyHeYQFofGTeICfIwnVV1zREeEr9rF2bDVQnf6/e+74/R0jsHhm2ps+gTR7P/GxIVDGxxK5M/fl+aWvUm16jO7dQmfew+dCd1IO0ySF9O+xYkZZMaOj615fmulMuRqWrVwU0/vN1614qHscflh35Y6AG5+OnFe/Gjz40cDKoiKFcdlEx6q8dODX3Lnr9FiNfCkqV7P25/zmg5tn1cI1epUr+QEE9I6g3nyQxteeMzXvGz/I8I8ELlw+dTWgT4aUzd4I6fZ/j8Lt27GHvgm//eNsXf0C7X7ufF77vKwTippJkNZ3RoQL8ZNpnjQIXUG/3zPfuPoM2hmHeHId3MMHhnnllHFsQUTJYwvcUodI6UgiEpBEcQu//LWYd7+txsuvMH6/whuX8/j6CMgE18nqS6jPIMHgxTWX4n1LL2LtgpvGfPo9Pz37hCvhplht8lO6wJhfqcGC9E/6ULxsRGncvxkBcC7Yfy/v/oFJ6rlgp5xAxnrYb1YZ/YN9OoV0hxmsaKrh9NGnHp+/G7rJqB5BR7YTxPCcFvEJlNqhIf4ccT/7K7bG/hi9h0BlrCDp34aaBzDf1F67SLYvMXwTfT/sjCO/hGHH6a+nSjSZxvDg4/hdIiMF4cSL2j42Xfg/Rfgv2BJhyfpbGArpC9PD+yyf/Yf8i6GOFo8t9ToEw16NJhev6+y6qMjNTSFYUtLblmcxxk12EvhGibt8kEfIdaI8n7+CWPjMUZr6PNUc8sy58O/KWUjYzLDVjxUucMZlX0Nt/QzXJYQ0/1A14/V9Cttw+ZBqT3S7G8EjdUMJn4vI85UnIu3X6Au/D1TX+GFPLzbmDTuPVXbaL9Oik/trG2UbxBB3eQMCRj0+RCzHkhf6H4Zj6JJmBmpQe9WPsV5djOyPvzpAwuQBGrJ2J4MC93lgdgIjq1OT65aG3d4G+rlv6QtyVnbkqS76LyfXWN3c4QB04ep5crOxL7/sqKwQBjBJe91cF8Eu58l/hxd5Fsv0T/rBhrG4NJcL+Xr2C97BBagZn+8dBPsYr1sD/G5vrmWnmgGeErhpX1vjrZ/7hTMIIaSsUqGgjJ4cE/BK+BY37WIT6e2n2U2d/T9fGwCjfgXz+6ukzfgPG6zAmatPZXCmnPAR/Wl7jYiocJDQQ2qqwprXVYuBzSyM0b9x+gPRMEgvG0NxwSbo/C85H9qI6pODc9bE2tD6//+UVXwxOL/xkEL5jtQFD7hB7DDfZxpn3kHKMEuhngs8zN/hC46EPu2xkaBK2ihT88cP1fpMEn32Ub4q3BmAAvHrxvxSWGqsPNYz+v7A+4UuRY8Rvq74H20evh27lvzD40RR8Sb2GloJqnonsNR0AAUqJ5u1p/7gw8owT0nJG3Xpf4LdLEM2F5ZP/oKR8AEfI5YdiHNzBsEI03y6HgEOvP04ePoYvwaXfDSUIDiF5elwnqhIqQVyevuMtKecIA4YbS2U9DFAjG8JXBPmGUHoHPhfGcoXbK1v/tuE/eI+NAwrhhbyPjI3H/HTrobpEKISQrpA8fvF+/TkKMh5n3x4e4eX1f7kmY702GcV3H6DqZ9wtrJ/bWEZ1PSlQtRuIDasQMKIIG9pisWH14mqXVJrpLWffkV+NhpTB5SkzUm1zGe7m/r5RHlXQU45XFnhSGr/qXuWT9rsPeWpBPp/+qQe9piRiu9iMEJf0SO1xmZfCHv6mqVIocQNB8BibUf5zS09sRBv+FNDI25rB8aGJluACH0M8McXr7uGGFHJh5LRLQNmjfnZbupfjObAlfx/w7Cb/G3SHAa0cXltp5zQ342Lb+hgI/WOBARsw/b+qH9AvjNxL+W/j8fTEWjrdb36awhHb/YwMUZuNBAWI8qXYauCeOJhnVUZ3dnVneF+PqY+6nOEWd36O5EIey1tiDXeZMLSaxgRK8RPiddg5bNVxVqsx7JdKtXxXknxy2noIWjw+j18UwCxv/grtbCRexDThha+MlzhNyfj8MQhu9/vcZ/zB8uHfjYQEl47f/42D62ZY6vmLv/Y7V/f1rbf1nlgBAofs06D4EmIACQB5XBB8QLFFfdqgWh/Ryf74zei8qsfm4b0DjzzF4K4B54QpDdoYZRPjMySQ4lWgp8ggSgngYbTUKE3iNuCEMdQjvj410nH8v9IONAn31J5OlhaTtaH211oMiOWswmrqnsP/pHh3vf4Qrjb+d8GsLuxByBgNcffxtCqV77ull6pbQQvtPKbuF3vfQLJyDlNsxc6SAdrtVYyvrAhtrgT6MuDMF4VYuBYOaHsuD/QR07x33LgQbh3XqrCMg60MAwqhRYewk9y1Rn1QrF/uFMCFuA+28j7A99Fdhq7GA+ZOXpHqh8H0MXw61hw+4k8jKTxmlgt5/lN8zzrhqd+hZxyhaoIPonoMjhpxUYEdFfoDtDY+C8HeNtNh5Auda3LggvwEjfT3W2+MYj4inPqwX+T5V4WDWfuvov9EFalvV91y5ECKE3xVvht8Pd3kDI2BwfGtev0f4U3+6Znzpd3KnoVq/u0lnrp/k8k/sIX6R8Tz4fPwWcfA4A/IVSy7H3yf1WNhlD9dwJ8W9+2fF+gOvgsjo2F4JXmJDgbVeSkPD0if0TNNrT43ikGQdIZmbrAZs/2qLXsX7yKkaK8hp1/CrivpKn5gpgrmmX6XqN9aE+VRfzNhmmfuk9dn+5j+oT7vf1CstsfIRSz/hyHMeEg59tLrw9DfQJ16Ir9MStPmecx6LVAJgsoz7eEgjzqeGYJsuA/fwpqfR6/T+tp5ZY+T1q8I04Zl1cYAG/4wIhULgfHaIInHsMtIbBD7DftgeXk4YQcL+MvSJtzCVwbjYRr69UKp5C0QEP4uXyuLlQ3fJ90moLfjIZjTg14R3IIcE8hAtiZvRIbERC9B48Vkwkhe0FJgw+Vj5u/sl2LzS7lI97Z66/77jpf3n3Jn0Jh1F6HqPGYv3vq0om4+9/D73WEBWftiQ5rLrLsvhx54i9+lTLcEO+yKxEIOTibk7aa3Lqa18P6vffbr/QgivCza2yw9f39+RfJLD1avIrEXdW0y8JDszLy3NzM36S89uWLG+j1/uOFWTJPOKT4g9dbEzeJjBgJPLndQW+7fNvvjq/qv7+O77qr9cf6r0w3Pb/i8b99cfPmqr2/Ei16uEL9a9+Vr1k8omKmlPXvvuEes6+mxq9in43Jr4JO96pbfHeOpkPajwZRyVuhpBRNue0TPDS6HX7Yyir79x/rFfteQlcFcvv6a279DRflxcXOJ7RrnPFirO+gVabk/a1nS8Uav5Rtf0r7lhu3/ylLfcUKkna4LMdPA8EF8JeKSQtyfns8omhlGv+sIc9aL8yIYpRe/lSQmpePSO18T4ygmP/imfsCSvb18u5IaqNN24EBjwAAAAABCTAAAAABYeGA/CEHlagxhjAwwjRWjhSh+mFdhqr3wW++94VFUXFDmhvqKFLaaUXj1k4i2j+xkNmZj332S4Q4Zn+OgL/SgnPNksqrOoEvt1zc7auEO9uuru0eUvCorjIP2tVUXuYZlqY4CF8w1pXGeO3zXbUOkhVEwFfCCN/yp3SSftVgqjpHetLNAItUeeX7eVj/jJu+8q/vdYj56+7LS9xlCzZp2WXjqDadR5X033f7W4zKSGbCBPoKQa0JqwLO6pY78VTow+/cZfCOxvXq9J1bJWx/wUTB3+TabisD7aO3cXQjLNIPFYPdCR78XCG6GkHhllkbOv8XSp8mjBWD2MXmsNMUQJ9HT/Fx+QQfkHKxvuLykG/KMHcFHH3m0d1vFYdj+EcYAoEdA49FY2L88toZ3CPw9XsgvXj91IUKUr46OoOw0PIEHa/2XZPSUaaxNeWPDen9r3xtX2e/faden+ujExlxsajE7pnED2RV2jkxEp/8IYxnezyPOhNbo5ai6/d5P91FSsrzRf8T3dgWNHSRpVPAgOo3qh2XKm38E1ZoPd7J1okQqmE3opAwMNyetELFWTBrlmCkOpejrYhn5WBrRceDvTm80NFdriQQZ047JfsQ6/b3xWu7b04xnBZtVfzb9SOfCmXJUkMiWUdQsDwG38fh8bNW2v8rA+CYtAtFkYDyDTWWRCtl/XIOkYKGJCeT4+n4TiqIs5cJfBXcIuS0m0QxsSFyjlbeLFcsMNantgq2q6vOx18O1yT7FpxkRYNYNFEucvv9FCMMo1YgXZfeh/lBLrtq/6Tgo76166MNhdXNnblKs3mJwu+2AgvPG7g8IRO1pWf/sKeGkRTf6cP7T74bDZ8dfvuOLw0i5BuMn9q6bbOGvepc2FxUrtTFjuxr/cL8yhIx5SyCViptC9R6SdTMa99bKJ34cesQGJ81vggg62IHbp3xQfeMd2K/ZYX0F9VRD5gwEMonev9jqqPVH/vUVe3w3B6VohdRtzImaJ1zTRo09SjNbBX+aMpaevp+Ty3rCl3B+amtCcefEffX5Lvs2njnwQb5d/HRcDbD9nXDVqdRXoPnBNq2Nr3jsEBRXAY9T6DWVOw/Gdj/vXtaa/Ka9sbHZvXYIGWMklUGW7uMVgWHlaxaX+oJ48mVJaOUIG5GZoxwTXr42pFktgf/BleCL8ksKxGateQi7ZmCX+wHyCd/tRzGVtUEbxs4PZl8ZxR29cNayfg4mwiR1ggdj6CrXDq1LoL0dZ+NDx7/sfJ5T9Y3LmH8DDPAsXN2KULxw7QhGgQUfAAOwgXvrr/xujAk80/2GN2GUZKDjUZ+zzO0NzLlL0PTaVbN9ej+S3XP7o01tcL44O++zwiev17Tob46GQJO7L94fn/PYROG/6RxAXmev9naWNv60HQ2e8cbBhJelMuPBJCr5UozWl0Xjaaf7Ei19nBj+x9I3TlLezFRF/H8hxSlx99fQX0NjsPFKmOD9H4wCBMkvhETUQIG515v3PNxq9V9Ekp1aaht2H/jcq3pVggWEzhr9BEV1osPlZoy3+n/D/RxAUmnowUwoW4069fR+6w9hPZGv4ag8IZRMxuitN/JLWeKsTrZZ+YNULxs1GOM7MUUfHd9QckROjSKfcHPWRPN+VxWr2B9Ck+fkxtSkmej+/Be8ZROppfZfOxfnlh3/k4U2hn3+DXoPgoI5H/hZ0Z2axv6bBxeHJRTUg7L6uGdcOxsWtrUyY4lHXTyko44siNMX2e/gqjw0dwgFyHTxae5KOnfjgPLLfQX64Sqq/x0ZNf54Vog2yLXtZcvaf1+v43WHeNNUZbvz84gJp0aEZ1fkWsCt9Agn2GgxJbzCRUawZMuLzxGw9FRexu3hlJnxouJuwxvgbDwNZwtn0c+hCiYK9WL+FI+Kc2cZvMnCedwxc4w1fRmjn2s1cFd2hK4Yr5rh74sLLXxsz4dS3rTzhjONvAnzaPB+6BR6wI/6Z0x06D2aMP15jwdrgAg4wblgxFCbr4aSg1op4C/G7k9hMgKQGzdQH07Ghu1vY1w92Rts/+UCfOE/+Ebj4nSpq+9JX4Nvk/foZyB1cPZBP7DTr0CJO+G8k3RkGN5wh1pjnUeMrh4rSsUgw9chnzGhgMT/beKu/l5V6Rd0yVekSsKxbCe+Vifv3k+WvCnFiDKXPG93J0FcZvg+s2/3w7DTsol5i7Tm3lMbDSR0fv2SA+4egfOEdlLcttIma9j0iD/k9VIqD/lvB6t/ex0+33DuA/oEMMvj+HL/kZXx0MD/qifnsRj+NwhxfHiPxks/J5bIaxwKfS4yxXsnQ+Hx8k9wID4RnK5GbM8IrhhpbT/xvWjZmDE6ehIEIfauZuGGLyqGMfBQ9YhKw9O6st/jKdSeaLdhIvw4HgFKH1/4SWIKl7G4Oj8bGMLAo+A3cdbjfp0pwfCV+A54/hxe4jgEH00HCfr+gPJ4FgNplQKxQzs5xDjIzceA4D/CdwzBVBFyfVphoKjPDCA4uU7J4EOA65rxtXHTw4T/H9JgTtqTcfTH/H+2PoCr019Hf4/QJjs3q9fCOvOkDU+SdN0Mt4PUEKZcr+vY4TVxu71QRegQc9ekFYaUznAv6pr26+wP9k91oK3+4bYoiTzV/mnV4LvV4GNNT2tMZTblxE+H3INZo18XsN3368gLLuWNmikn9JPk/9kG1GxBatOGzd0j/MYsaeDm/jAEKNpmHzBlnye1puCD85iErg6YQXlKf5GfmKfiv6/r+N6sJwJP4Gf49SAEGjlRysDIwv/h2Kwe/Ol1IlonlwO+AetpL8aTC369Acfy8nqu4zahvCoQQHtBdylUghtKgCPYMP6ZENQIbb6FDWCFofzV6XedKtRlyESjoR8Z9KvaX68ECeD999o0cka4W4sJ/zc1+O15BX4wOjvABj8x7QR7rOXII9qnEju0cI18ZW+km9RFCyouOqZ+T8Pzm+/B172OevzZym8MJXL/E6eKgvaH4wJy7HgpkDkvOl1r/bahHvT12mXhjPCNDUdF53P6fTCnpz416UsO/aCOtDf+enGxRX2Mmzh7Rfhh/Q0QSNv1WGAsBjYD7QwGiz5X+wl42YGAGHcZEI/0rjxmRVqhD22C9U/Gz1D6I4j9/Cn7DjACwdva/HRE1Z5uMC9N5nCOm3HjYg1Uo8Ov0eKs7P2LV3HzMwcP/2R3zpEy7ZG+O2aB+A/398e9iwiwCFbFr/D2Q8d45qMk9yHJYQPXcn5T119Av4y8Xxx4dj0yDpIF0/8bH/yf1DtDLxg0efL8he7hpd7J4Ek3cSJqppBPE/XHx2Sfw18LV+F60TS0GodlJH8BXOgi8iqwVV2v10Cv93IAn1O3cU20M3v+/UlcFXuSqgNjZdrfqN9x2Mb/vp601/uCrKzLQ6nVPl7fD8saqO8vnzX+nqCzCT7MfdDQbRmC80rx0LfHmO5n5Pq7xnc7q3LGX+tFp7GPKKrIp8ZMGBNb4yDFWw3xmIHA/fkU0+MnvdY6NBIiz0z/S+UywKRX3b8bHI6CyBrxsXOPiEnsSDBG+79P8b1wahlqo9+jX/VEVDMc3vLw/wR+uS+c4wmvjI8Pvwkw5pOv8UggbN/XTFDY6ZRU378r6hvCd0ECV9v+6BxsdmbDyxk4s4VMXS3VUjvz9hZew7qB8dWC6RfLb7UZSIg9BgYNBL61cRuAmaf0nS3ssgNHCCDT33dcEJ/C+dnn5WHsr/UQOy40YKJ0Uigg9c6FxwZPdfo/U9tv9ck5jHHgPa6CPWfB4dnifVECHH1vj5i7pv2CDl77pWtfp/YU8qVrd8rIckK9XrQRmQcOqpccFxGQU9w88ikRCruhvokSOjkMyM/bG/7Hh6L3wqf+nsbzILwjh9ciOjiYCA20PBGma91DMJYhc/po/G4dT6sAgrwtCGfPtJ9A1WfXxhmqDNmzTuD/j1xvYH+5r2/8T3sfNP74V8whyC/eovr9BdbhWTe81/P2od8YYaTr7y2pSqSQzDKC/Gb/D6mV9MLSw9fThR0YTsoyNP7f94x4v+Nl3oaAur47jr9FyfBrcjSl48KWR+Oybh12/p+vhTu+f/Ph8zfdKOvTdt5TY2N/MpIo/GY5noLyGcYHo3B1i8vgi2P7nwpCHDfPKAF6K08v/qAedindQxcMT2MU+rL4y/Pjo5fcGxgfDPmxH9bja155gxf3vJzV2ggb6Y6GYbcOvp/xtyX+/OuDDuOmHbaAR75/El4u8JcN9fzIquTSVVadLNJaCvAk2wPcl9qy/uW/vSOoWk5+zwgJwzkI6Q0/v19z+3/I0nD+PLzN2MY5YZslwf6dWY4VwQvL3A6g9Wv10f3wU4cl5N5moCXvfac3qO4bSFLHL3+20Z3erIK3vv5qtD7vt/XyVOf0Xu9+vcpAzVVU9/m4obkz0Rom50l91hWuJrWvLkH+5M3f7JNsXrXetK8KusT44Cu9nSMCsNBZWVxPP17k0M3VXfXr7eUTVpcua0N3d3py56fX+ulWgQ+7GT8gjwUU3H6u2bN/ita18WdahcnyD12J42JDeGAuVRiPFN7FT/vzXPX2fH2YmO44R0Ery/JLNmq0fB0XwmpV5sRrYe+9qXbt8nJd79Hr9FRBMnu/OC+PGU+ZROyv32lgyN7l0EKX7x9eItS5JMKL0INPXrwpF8I1WtdfyhrDySHX+ypmEi168VHNrC80O765lfYptiYl/fmmFRWvQWvL83dHTF/Wok6ta73QjWjTB2BAa8AAAAAAQkwAAAAAWHhoP0Nzf0KQ7hQ/CcIYawaRIuz+sSpu4RrUKwQ1axfaFRWdjBDgnwQQ1h1OsUsopXJUI9pnKgKf8fLqrzk/fUXaO0rdCyOeIbof/Wtau0Hl+M7lJZfO33kNGU4dIX2TspMaQzhhVVaXIXRNq+WUEaH8EnhxOwf4R6jKFMRzkFCikHQf8IQi5b9mPFqbsWELbslvdpNSwvldgY8z66/T7JbBVXaBDuyGbsVG9KhDDidJdK7DxlJ0qfJ4wQgeIx+4M/Ifch5815qP3mk8QH8KaN5tj8bbtOwF+GW/vi6BgP/jwZGf1TbcfxefJ7Gic0h6eouQdKUfhlljiOnuLmcnh1Oz44QQiO0qieEdoIGD6jjgIj4AUd5B+OhrvoRg+deyn9y7660CCaX4zS3e62/1oZLQtHiqlv7vtjec0jjUX9Y7CX1/T+MqAwPthrFroVbp8ZJUSJNLwy3ZJ7/QU2cUGwVPNhUjgwGvFesPUhdCj2PjKhN84Yo7EBJTITemgs9TgwFiQt/iPVI4AAZACFRshMqRdiMA78jy8L+7tqoLcm/G8YXaBRve9+7u+tEIoU2lcuX61ovGfGWpIHxvvdlPCfyfUhTtgsjKJ8WeMwrjcbpp30JwO2Ij8qQM69LF6Ur5uEeHUWivDMyOQQPYcn13zOpBceTP8rEMb2/H6H+PGZWL4Tr3hfmcImJZSIstPEAjPX+r0rMnyjPEEpnz6BX1ze6aFv6GU+/5vhNSrF39hD3lbkRfoIZhPIGCQQFEm3w97EmFKJ8nyiolDMIH34w/0xplCxwrSEqmQV0ij5iqEeAo/78vw/LvxgQF/3xu9r7f8MX8BEf4B+cCQZD+XQ4P8By3v+RjciTwh1zghNXRJefd6bT8+Bz30XTmMftjZ8aKcetfgp532c18bfLiy9YS8bspoF56/b/G38uarQg7bSRNof0L6S/sEgH4RvL3335PchVw9spYHZ4VskiI8VsAO94Pc9QQBX9AMiKT0zdoZ8BI9T8qJEfB5I3rhgg95yXOQkpJ5E5ONuBAjRkdYds8wtjPpzICcL0/y6lrWSCf7/qu6t+l+M2fIQRgSJBeV/YZQB9x9WLp2eRlhSft9DZvg703pb23tl5pG5kVcxtYIlPMoWSvbnH/jYJFItHr/Q5eCy9h7M6iMHq9qdgg9k1bx7sa94W4aRvx6/YtKrGzGoDhsscfD8J9wqC5EEyfDbW1X9gfW/BLQJV/ymu7J/9Df3hqefELWt+b5MlFj1gaQdNMA7DXlf0/QVor3Y6Q/yuvA4GkgH9nk+u9BERUd+NqvZu+YsGj9pchYFnUxz9tzOgO/vX9fgKjIe7csKSxaYx+Y2NhAjqc8FrR760V4+t2rKNQUThXXf30HuZJKngQP/fFpes2njVMqF62WyQF3yjJK144UfEOupefHxEf8jw1TPyfP1hazyBvjQ1MZdQ/5eEfnX28GumXeuLGZu0ohTcQvGeRnSxgSx1MoKQvN3wnqsbqDRNWCc1C+0xFOGxm8ovNY1/X3VR/rgsv1n4UNcZEWtbD+riapbR1EfmC/fX+QN1WsWT9pTGCXvhljL8EEEb3atB7jlyvFwcUVsGRKvML/YC7BZjILxtHd0bK17DhBVDW/tP7GroZXjRYCSIvVuNPKNEvsNgqHshgmOoJEOoB6uwi/I/+EwWuHR+NjQhUiD5pGt3YTjQjZg7wLkXIJmkwYDxvPg6DlTNkQ6tMheddwebKmwtv+NhJi61Da7Wi1mwUDsnr0SdGIovXgtRjA+H1aOJZ12B/jKbfD0K2BM7F9BfNsbHtJ7uYqieGJM/vcU7J/Nw8Pv3evOvD1MNmFB2XKx3quEdY3nf8bFFfQfkimdU2ZhKwK2+cU3rX9P0OjYidh8OUiCM8NWeGlx3515P/LD2cMNS3EHBvLnr40DD/Uby3zAgCOMgYdfM6A+8l69untajvJo+PQx4o3E/Xc9fMQ7C0wr7Ma3sGNfp8ntXWNgmeF9f/Ogp8NmqeCcf34v9l4Ux2EVVajloQ7EaGE+h/nSDQnMQjGPD7b3EnvfhSWyzgmsH8a6C1WAwaDlSjW9R/8K1avgQLo73RZSvuwUMsMhNIMV+H31SBJ/6jeg0mU+14AnQx9x7vH/GBt/HQyL7Xk+qTssbAgX1yMye5SKorch42NvhcU79fCOuQO84Cb4wtDqgnPs39ZBCd3tYPrUhVXQSp26zfQbvqnkIrnfSWF+9sI88y8xxHX9uo3zZkfy5Kodnr+XLXgstcYVRAzNoPzCo/6rER6KXjoNmqxmVk10CtPwWPDqUtUNu5BNcz09QU4fffQRece/6CEeDh8bqOG4Xz/HfVAPZa8fP8aH1ln+oOSD4fv+scX5cIEc7y472UqLk9emjsMZIfjaZDqfwHrPD1gfuxljIgQIsjr6PoLxmETDZfx8d5PnQfkJDBC4rkg5B6tYpZBT471ex8gXi7w73OaY1zr2soAhvr7xTcWrpdRQPYThgOgv9idJv1jptrfx96V/QnL/vphTLTDApATPUvPquCrhGSP0Dix/z3mEO58KYLcs+nVmO0EHynoRvnaR6NCHsI+D/kNpy+ksIecdh2HBTiCtAkM+0NGHAPQ0cO1XhDLmED3aY3yoGT+uhu1B0QdTytp4YxjgiPlRW+h+Tyk7xnd5OnjVHFQPpaCBCF7WNzVfVNFHj14nbgPcCn/G1go8jowi5Qwbzwgxa62JFHtf5ozwQ9DhlD5mBVfsN0vG8gNG/MCPjd1gCD4U0g7H0xqYQQ31vd/8Ba+wP+MoUJiwE7ggcNJb/UA1cBRt96FPwfRPS+eER2K6xS0Ke0JEEfwjQEZw0CBmWtGclMNL53h9OHBj8n902MgmaUT/b3DCAkas4+X8Anc2clGtfHQn4yw1/O13/umq6doZdMY8+4fxVK1NPLRxXVrwp1ojDpEIT6njMXsv3sd3lQFxzDvQz3xuDCVk/Zc1wdPVhN/13IQfjO/zNHx4PKCE4gI18k1B63RSfT24II+W5gOHbnTSVY9tdwxYQeLkMkNbfxvMLA0dhdATuMpC10uXnax8bX77Zxk8mXxfQSC9xuVcMItb4yPr8ye9X1/YVOsZ58zig9u8tNWJZBun4yUTGAIXhIh+Pg2aYH1D7jdxYvAgFOiYaZqTK+EBOGckU8tdnItaPX7LLz19pputjLmuNra8VqovdEb8NjdcMXIGgh30wvHE5/h6rBBF7JaDR8cz8rEYEmvv5PuuxnHSsGBCOmpCinitvmeG6us4YVXvOj9QmFRkqEM0lJ7kvjaYgme82E7Pe4y3JGWzPvTNSkuwnZC94l76fWPtqWfSK/2CsqmHeqEuMYEB/siVy2AmLx/d0r308s9UF/k98hix0MwvRHAf9TMoiJoZihH1rUf3LAN99mdzeM280bDBpp8da+jbVP/QRpdwpCReWIvzeiP07Hn3LIUFmWBEfyhAKX9LoPbXw66l/6v6Pqnr8I8MullWZef96QUtDZcPx4TwdghVD3GHB4TsDfpVIqOgnfc+FJv9a2HfNHO7RzxLA7+MPru+HcJuCd6e4xw4iwKBCBvGTYv0B9bYyuA3N/6WFrdb2b5xXNmHk/0MfPrqGUnkquM1wuMmav5jgODrZa6xLYEB++nKLGXez93vu7/Mh23qHHS+f1K6V0I6I03NWeT0vYzjcHvGjNGy5GatoPypO4+Z/fTavf8y7JOHu/IMQwrt8x0vH2v0+7cRIgHgc/VZfp66QI+5/FT0xGlnKdGsrUYn2qr8FPu/e/KXcKaFfJGssZPlOkYWG4iWO39237J73Vel6perdauJi+N1ddLm7UJOaLDGvvXsvtZT1/uI+hOqp9x9+/u5eJs2xI+lyhFaY7l/WsM08zRSibTl/JPqzeeEmkLGPHuogivE6Jz+a16vwlrxfCHlWT8UHGlubeqyVTln3bu1CbrHeR69bZUiwSBJlI8pN7U076fa7q1pb3sctSCljEMfohcEHh5a/aD+7BwYX/f+z+JjGX6z3qaa+6UICwfSaEb7v0V2Lv+eS079bV730paMGdXr68bq3shO4bWHx8Pm7P5635dBLprrJm0bF77CU313fVeqyHq/973pCfBZsPBXlaStIpw5u/t/+qqNKuoEBzwAAAAABCTAAAAABYeHA/CInN8YA3lqBrwQWez8cK6hTBMKTh2EcVaCPedlllMR2SuDR1CPgG7ueZEschtmfKZ3UstgRby1mMPdIrb4C//+x9bjPTYXGKK29IhlKA2b3QxvL2u0nQCXyPl5y0fhD5qh/i8qJdwtDAMI3i+VDjRfBhgW2n5VqCyVgOMofSLjgqJKZqX8t5uz4Hc6jKuiW/x0nmlzcd6V+/0CuPtv8pwuB5DMjPjMT3DGkFL87hNsd5s8Xd7u/cfGaLTf7YBlmQG0MFB834/ZFpZE4ypCudH55owC5wHY/pP5kibXuzTMlbjdxoNkZPS3wjyD+wa5CVwns6TvcXG2SRgn/Z+Lxhv6lugO13F5UW47lvcXPUjtO9/wUXGbDTUkBhD3uNSe/cXsd0GCukQrjA21sDvxfjRjuMFSR2gQxhL5tJK7rt6Ce1cZm/9Sk98v9CeEtPNa9IZ+Mh/GcuVXuJESLIhG/lx0T/+UVgj3P4LickX+OJkICHNxDvE7mJe/pZTohMVOQdsaX6XJNoT8OIiXeJFJn7gWAQUK58atXwl74ca+TpejcRQqWeRkeEl/w3Uvt7Pr1mk0Crd8kX67+wQRgGL9+sYEdfv3yhCUICcUGDz7eVdlWDm+hQnhpVujv7PTv0MyIkOzKd7efIYWNYX38P1FNA1jKZqUy3tX7ff8lVCO/uemaRNfCfpzrj6F+EO/xLCkf3TpfGd+/fHRzSSO9k/RqlE5l96UtLQ75LhAd1tddex+ZJKZUjY75hGGCfu2p0v6W1UVdrUORPUwB39LURGZqqtJXgPy5ZQXC/OfEfOwjcbFb8B7Llkea9dEcxadlqefHf7C8ToPAxp9WpH/p6j935/xwNoJvAfc/Va2NkdUaDMLY+RAUBshmknkqdpBhPM/zzA77ev7XLGeQgilphhqmJQhiuaNmNNfDvM9UoRlUrSgdYLDyKbbs7tIb/NAB8+BGrCAiK2zuOlT8X1SwZdsOy+ly+MJnaDG64rj9OsPUzYX0GpWetl/fhHA94lVzq0KgJyHk/arC1hc0RrwWhwYFiRc/7jy/RaeoyPCqWGlqjSONqzh8hHnz4e9KELBVol/D6CC8PeA//doLi4SoQlY5+BbxUMMQJWtB5f51FpY3eT6AQMttN7Jqo4UaL489P9P/+36jYdtqrA3C+ioznE7x+Cf8qMWEP4kIBmXnm7AsKw/l/VASA9gVhfCnD9/crMmfY0Fvqa88YSNNT+5WufD1qK6QbtJu9TXr6BeT9K6GTMhhJu4gfY9/NRykTLUWGeK86jWHIbuhYadjYDC/oye9drUyX6r+OumTFpx/E3VUVzK/2BeJqKf5Iy8Zg3nvtDfOvkjyswwT64nEznxxaw8TDBdKJScLlxmTNBxoQHNsYbFaVmh2T/ohQX9fiz6kSOX1+x/Q/7e+fH6psbziIxmlhiIPw/z/f7f9C7S+j9ZCAuv+XGpVQR6u8CNkPeP0wRPgSdKjiYcjna8Q/jeZOsSxEuURTR26LwATZGvmJglQuj/jKRFmTFqTgzpWsbBAbUg5r570GPilTpCvxPi4EHxtWDBVC9UveiS9KVF6oszd/0KB45wzsRRjg9fVBdLY/G3ggEwbDKWPHg0dIh+a0u/mHx0a9a+fVBGvQX8RhxdKrBt3MWXEDVP26/CFBRkirAi8KPx81Zm9V/kt6hh8gWkbs4RsT8qEwtBejX3svh34+Dj0F5UGrbP0PeWHp2ZgT6w0zQuvyGU+lFRu8da7SQrDn2X+q2Egtryo9Wfr6VN2h8ZhFs1WvjjR1N9x30sdiPva4IIYSeMqD+NJkJbLfBOgw9lIq3AHC/0VVjegYFVV/MrD0mhIuf9v4L8ppdF/xsbjkaVqvQgfQYcla4QFBFz2GYkV0hJBuvSS/dxdPbk/4jVnPl/JRi8bzCC8IApkIcGAh0aeIoYZ4PneCyS4YvcqA1r7P+M+f47E8ErcfqP2+RSm9/N4/QLusXMY4TcAHjSPTY3/UAoN32H/2Jd7x0YTRHQYzw3Pj6/1VQpd5c2JIYDA5l3PO8/v1LuTNK6D2V9KsECw6ZgcF0FMA4fRcDr9jRsvGfnOh+LR4wwvEOCN8C6PElGfcTwRq4EljnmHDvj42lhRtgAFgfS0n6gdmsE3bQgfCXH803mzF1Xhdf6H4fx04nTZWNi9DiG5bA3Dq/sPC8yT12+HNerYD46G4OAtQbfjE3kGhqTCh5W60ozCO9m7Zf7j6ALrZB8A3fUGWu49+ZEn458hG30ZnGs0pVfetblRaJ09hV6Vy3gmpul5AIP0fvk2KdRqEdy03hltfRO/VPcI2wQtgVSGw4B1CsPpJjpi2k57ZyC82ubpIbzipYNPCeCPeJyWh79UGRTCNTOUKsFbr7fvxcbmHvSs0Kho7d2titIqixsEC8eOEn/uFbDz1VHf19lXJ/XYyrGZ4g5ckTZ6AScN85nwJ8+Oodqj2uHID+NyNXoUQ9ybzj86KUITJwt1UHg7FuQ/X2aA9cf1TkcS+HYmRQWcS/CGH1/8grqg9rDqgby8DtgYQQzwQTllY2RsSZo2t9yI+B9dKQwmim4+SrMKcL+3roN1Jg0dpvWE1f5qc251002EuzG2l0vUGGfO47Jtbf/YIMRcFdeeXjzR19BIPptQpLjYdbqvW1vnkvl7HoZ9qF1GE8dCAaqyW76BXDV6dxuMcHapCTtjjIuD/BLo/Rpuxfad6g6hf7LsZOaw0iwiEx/0iSGBY/42y/GQnGjq5GjnrAgLir26L8bVggSkc9ifD3arRVTkO8xB2qZuul/xk7FeG3xwn+AHLw/OpU2f6J9//GZxxC8aLh2ziAhJod3rf9yiPPlw5PBbXwj5NsIEbYEln923lEfcMZ35Y+J4Ta2m9xzcZAzdIR747T8fywLjt47khvRdPhPS/Gzd4RsEc6EvA928gY4cbQ+K9wYAeb7WtSE/YzhGHYQWHZ/HlDdyL+dX4zj0B+Oh8Rr8mjxB2zbyiEIQUU8jUDTJ/7jY2PmrjDzakZFuXBvuHRzFgvQA/4/mofqP4XbqX2+6n9p/+IxiH60WD/wrVHGyhuP+ylZIL8RhSN0CSm72BeSbf4Rpy4f3Xd9u/fab/GeUYPhGwHdB9PEedjuPAUNeOwf/AhQEI9i78lDAWh6fIOnx2M+6RfUlUFJs0HxoLX/D3YU3AgEcQ7y4ky1n8/uRBK3R1bT/8O9M8DdnopYth3ouMzEWt/qZa+n1/TtGFBFiJW+uswLaf1flfiJBiEzB1nIPgJDW8Rxwrsd6rS1WOCc/61pYfCtcVjxdfPH0CqyBw1997nvpAvu7u/VP/W4yYTPnd/flVLqCq8DJXGTTf7tspnBDx3LbK4KO8dp31S2ozCitjl9F8NaU+L/YuV4zc1nyBCpP3e93VlqqyqU0d1aMdZcax+ldPURvuK/uLxGvhmhVaCffWvROq21q4riBE/63vFK8l5bQIsv2hDUs22F6CEmVektVZAU66qs+VxcilRS/khXBnbxWQnxHQZ2vlnwgK5cILen2SHLR+mpaaDyV3V4q1cWr1KIWhTxa7eUM/OrSYqJsb6CnXXrVe+5Ewjp09azKISd57uz+dypHtv+9z0q2eq/3RQpVPnx4TH38vh/lzZu64Rfdf7mJ/iQjgj4yu6qjSjiBAe8AAAAAAQkwAAAAAWHh4PwEYdsuB8UnBlzR4f+sDagYD8Id/sPhJoN3hDkI9cFOB4Z3YqCJpvCFfLC3EmrXQnh2aDgCQsWO9RNxcrGgPOCSUk/3xcbCyh4yho+Rg3/3mPx8ZpPz9kD3Hn1v5qdf2fxnz0r59qn+FLZA0x5VY+etgf9bp3+M2ZJ+SjvhwiZ/oVwmkqHVT4Q7Q2M7B1Z63vJviXEffi4a0pgmZxHAvaP4u4gh7LdMTMT2jq1Fz9CZLKhe0JMDNqXUXLNVxYaDHmgntChp9xcdRBC9ofcQTi0kMkEeNaGQrDDnWGdhHBOYbwoFhFQ/DLeEieHuWOZ/+EPCXnsnaa1E/t5ijrd4zY3Irp62rlvUIS6c5nBAOzw4xf4yZEpOF4qvlsEcxjOkCF3gPHDSjng06G07oKWhmpHsjyh977Mu01sI24c4fKTywj8RT3b1+Ho0XDT4cQPlxB96a/bwzscSHeTEjNDru3/PXr1Ed7u9yaqsVE8iyEKUKarzKvbXWViVjskHkJ/U25JjYJFFceGOJlFZaxpO/tCr3ecMBnh0CaUMBKp6e3afjvGhyd6BiW/E2PmDAqbV6aHtxLvn5obkt1cNhdT49v+aUdTNameq1LxkcX98+wk7uIrOXE583BH8Vy6vCMdq/xMfY9c2jRs4a2rFiu4ZxJP/sVpaYULif8foke3lHBExLjQID46vmmfGWbm6RaaCX/NgHbeMfgO1g9ttEcajJ0uUk01s0Kb7938n+1jZfp+id5SCYYmTi/fr/a8KWMbGj6uqJLzaZd6DWuK1aJKX4dLqN8Hdd/o4bi346B7x9QHg79ewH+o2Q2i0vrG28c13FgS7nnL85J+YjX2Dj5p/GSkzG6Gsajhny3j5GPjxURpViql8Zw1azpjo/LQrPeN8lcECscEBcY8ATPfaM7ZfxtMwcrfy6YWmaqb3AiE7DP+sOOJdaEzzosd1db1R0L4StW0+CtLPBhBN3n/eMFVH6DUS7ks/xkRC/RfhGYMQjxeRGQRJI/WsHm7MFAkLn4aSXyerXh/YMcx5u5RyGE82/Ly+Y7Y+HNTWvY/TBZdm/vd7Mnqq0CnDGBR9M/xj36NzdMorgI2TlnOGb5keVId2Ev+eJYZQnJD18yUUyfi6wrt4q451MMjhY+Q4vo2ftDYBrdz16ocujI9vjNwdS6vQMAgiJS3Wl/fT67F2PqM2GXIpXs0ZiuGxDIPu1v+PtF+HetM1oiBvzRLmJYYtRfX6F+NqElwZjo/BvRWgeqm9PO30Nf6K+xmNXP8vxuWjftsvaxwsI0JPvkxNJQ/0Vw2dXrYR5/lgQMHalfDHD/Am9XrdkdoIv1MMSy9Re/2P+N+O19SKh62d7Xw/Bs6N9FofUxFjewQWrKvi5Q2imh8C5YqB322Fv/oDTtw/4/tGbiPFgafxg2/egRxyjqlk/TaxudRccp+BrRKuqBC6iH1/sOT2S9xtuPuWlP8NRdYbdl/79Afb43hNwwAGt2/eOmZQtWC/82myBsNZkoIgiSCZZgZ/1kp/42HUDo+wm4PbpiFaEDEhuAqs6uYEFBLt48+N9HEH+amhUeLGcOx8pn43An/nziDnutJRsfjf39ECb4H2Zo8ZgNzqWuXOy+O5llpfLGxhZWP/4e4eZ9DEse4hMHDv/1+7s/Imvtfwh2YcoRrQRWumu+UUJy4xOGchBT4rm2bItGgUb8T4Ef8896/rxXfje41dyCvHaeH3Rfqi9Bsetz1YfT/6dQ/Gzhf7v19B+t9ViPfD63HSsnJ670HvKzWSDQ0sGUCJ6FXfccoBiful8+X+xW0oehhEwGcefK8+NG15+PBwEED0ve4IBRJ79fR+7xsjP2/fLYqGUvgjZmnX3XoUFJ0n6pCEbgNrv3kO/9MlI8NpCRF9F77Du3Tz5DEI5Afe9BmClebp1HiG2NBrcHAPm7tyX9LuEO1rynIcgnBUgdSfv4qygUqOj/CEs0KDUPt/sQX1rsZp9gQyYNzm5kJGiqPyIED6yAceh1UCA5kzjPvqQwjb7/6eF4Zq/019AfK1w/w01CJlpdutI/XX+lXGdP4EzxkYRlgW7/2XjeRKOtVSBKx7+U8oB6aM8cen1X/43wQ7/YhrgLg9CfDdGs4vTnG+K3IHKi2F/97ATTu/+zB4Ix1lFNF+jsLxteXqRvcZrGIZjBgOJsOFbp8U7+YeEDtXX6IwslKu4YIev5LYtRkafXpMV6mt8zDQbV4OX8o0HWck8Nh0jkofuREgZzuZL+4Y4+BLrW/VtfztWlmY4xboIvDu8rvwtzA2bp1AOA/X360/DrIieYtafUZuOnDhNg/sft0x2X9xnGR2gSazvVd014D+Rnmp4xtxfYWCVijaN4rJ7bvjMajUP0nu0JOZ+gjhAzdKEMaaW/tyhcdKGiXCOH6TDlTQROKTGaRBoyC2BIr/G7qChDdwbqXiXUYE+sYejTdtQ4Dc62P/Abd6kHoamyAfAtAzCE/Ule3/vcbkaWwi1q88TZSvh154Ex/2TOvm7DZqyvsIMrLUhtXyCBfv4UhFnDGLh7fawL/UpD0ce/e/3x3p+GZWhh+vExuf/lHcMcL4S4ekmlXxeRu+v9vw/fP+HOv+NjUc/rs/RbdVHaDo+Nbywon1n4L+7r19rye4hO4IMI8CpaVAkx9+fZRdfao/Y/20w4rtoYGNwn+FPvnMTGyJ2NCmEbj7HUybp/2PQveUUH0pYO3/GYTMVGawvswMzGKBEBzmaRFJfV/ja0FWnx69eLBzlPK6Qx6HYShCpuDP4X7YlU7j6LT3JxqBwDk98jxl/33M/hpJLJ9/h3jpuBi6gLux/lWMPX+W5yF7AYvQ9iqAuxbD8L4/SvTPev9jCIriG+FvcfL/yCB10v7Qrxy758qlrhTfz9OUMr5I7q4Rwg79v8cRdRWgXtfGU0V3l7PtXaN4+JhkoPPA9YCTg68bbveMhYe9gOoNgVSV6OGZ7j4Q50l+nyf+43hCAtsLztwyi4QxwQ6i7qMfZaFqap/YbUnvqonPCFk4LYR4gsOqjrvv9+467bzmKEao/1k/ubD3EAMgmtD4KiXnBIz7+enizhB+34S9vCBheiMMpJz1o/+/hOREST7pvfH5EciGdiEvJJ+dRXQzUiC6RAR+9DmHewSw/yktLcZhQ1XULlDrl+tLn+OtHkt24YJ4gfq3S4N13qh1cdjIkfxo/35Fsg6XI49FhCjQxPvarEXcRjdXu/kh5jhjIXvI3kppZu7iuCbrXlGRorJpF0XmZIupEup9D613+aVEK9cK1+qS/S1aCHurmZ+M4FRuEHXNUISfrXqoudP1PeE1mNCFuGMquio5zW3LHlyQmT5PMKHebh6THA066Ph2pcNWbNT8X1Va1Trvf8fe58fu73Ps3jRx07xWT+5JYW2vWjwMt7rehd615/6v+eO5rxvLNtXdFV7kYivVc2xFdde3UcKCVa+/gn61Wr+z1+v4Jvbjoibu8RCjSXmBAg8AAAAAAQkwAAAAAWHiAPwMQpOCUdn9QK1RbGYR6DmdHTnxdPY5FHS3wId3hwvVJffpW+EOWEbJ3OfeA+xsBxW+JEbccrZ4S5c7JayowmK4Q4vIMy+eEpPyeFkuHx8bDAUKGCcIHWxiuX+9Ncfibif+/vb4zYEzc/3YP7yQbaMEJfPRpUvk/fxkeH6plb40EAeFEkmjytK1J7BtSf7qWN3WOR3nsNeL7RTg6+r1XFx1l+Ojs6r8tcwghrjN+GIXIYAwO6J+1B/jKgKWsm1yYTZv4uy1aCNje6IvLnXonPi0/7PELfq5rIgharOCA3cpBD6taVcZaWM25J9PdYPhaljaXgpP3vCFHW0yrKKecIDPwtCfBxNWX/BSnK/rBAT9L/jySodiwwKLjsz7YIEnJtkFjPMrJGrUELyhgcx1EvvuPpWZbjF3TXq4Rv77y9ycfnPY8/PziAlDAe+hmGlzIfXVypn6VwOHnAeEN/G4IIs/Lqv5e4vd+9Selstwjp+SRvdz54jyN0/iufJ1F97QzWg42+iJH8PMS3rzbjBXF8FnKbDqFr3bWGGxBqS4+T+qsIZsgSwSCk2f9d6h72O+2YYQ8g4TWvZfqMxw1/BI3PM0ZVAvJkpaPsvCl76cIHmJnv7Vz4uwIkhsfSsCxavTVMZcrB97WjxsOIeS1PV4If1CnkHxgkAi/flqCAMdlP81Mq+vf8UOrqGfHSmy4oalgpljmGOnSov6fK6I/BBKon4yBQRwAUuHGacvvfapx0CiS5F+xoBZP36G0nAxsd2wwXiNuACGIFta2PWaSxkxL6C9dSRJyevUL6+CxGSjYiDMjspsZjnjlp1C0E8XxvcbZEX493MRe/m2/x9yTljPfGf2VInBBx8SCgdF/KgN21+n+M/miQGxenKFy9wZfcnxXHX+B2ktP8HZhU7TyT1LTcfHS1Rp+DvcWGcm45zH8O0uWHtYk4itjtj3W+ikA2omNAUTeQO2vAO1ULlH5xHJ/T4yOGq48mv/5pNmqCzUD470X7jZcPJ/6hWl59iMYHfNDr9i/G8tHMbaBsK9V/ufNHyxHxEVKI7x97ubwprn6BUXjcZbXzXie+rhrKrUG/P51MJ3bqGO8ev6P4Wld2oxdukvHzwvsfKq4obl7RxP+XCvPG/wetFyfL1h2qEBM3/7Q/fh5SfX2Wz8191r13D80xOVfFQb0mrYfiUMsOVgfuXsF7J/XjeuEbuYGkj2S7whj6ZED6H+cf5Ov6BZP/obl2YMeQhLFn86n18yj+N8OScpJZiNE5Cl7LUoD857x8IE1X/42uB4H+PgdJpZWni5YeXI94APMpXzb/G6kS0FSSCo3VoUAMLCiXljAKjuB6sCYFoSD/GUrMNYLm6iYP8OROUB6fwkcO48eK4pMn7HcOybunjnDJ2Q9JTHdYS0+Efc5OGA21v73CvPg3Hv69BWuT2kxmgU3+ygem0d8O+r/gqvNkhbO+lB++wrobLnxguPu+fOCw/a63Hbu8uNdv3WHo4MveHIA8Urh5BQJnihIBDmcovF+g/xtSGgsDd0SQah41eA53bCBi7/14Fuvs9fGXiuwlVCAo07pUBgHOD2UNxmMzZx4L8M0qif+oTj41+NPLodeEfgxgMxwNrBXmK/ayQkKeVVir28v/CPh1qCBOkBr1NcuetIq8b7fEe4I9v4T+OoZFuyet0ursXf8M7Veo3jvvKzN3p/5pPmv6C91ofnUQT6F35DPL1vZJmB4GPMG/xnmshmQ+35wgWCArQCqNWHRBBNCLut7cLf3+N6BAJi7ii4QQcge4pkQpETf+GZe7w7Djr6Kg/jYwKJYGjasNiC47ygGsGPTM2rwmrg7MOKA4Dr/a8I84gw+15HTH89aMMT8O4ymGr2vcT4chRv/eT/hrhjiIAvfWMElJzzegMaykVO8TZqAHZVVda6hHddM+b/xmvfvedif7jeP3VqaUQFWTGngH9x4M7ow6nStzb41X/qMoWv/OiWccdvM/HLxolsb5KQBWMBD9eLtIJQrB8rngBK/fq/WhsPpMagR3mJ1FgaKCC6On7Gvsfk/6w91kA5GfHXjF04Yr9ff+MhG4Ej1QTqAKAhM0Of/8OpuuIRi944TfH3hgLw4NNqudaG2PGLgcRLsIuYnicn+1cNNcVh6K3qgKAjOzNmmSVP8P2qfcgjAIGYuGzR6qgVLF2mvf/HXlve6StX/GSJ954IL76fb3RJ66f9wjSLnDjp91PRbQQtzbSaPnc8fxkOYI7b+tG4xX48DLJ614LI2CI4IcKzWoX4PgwNewp8OxcJ6bf44Lh7/G5SMoW1TrgeAsVdBlmZ17X+MuN84pXhAVoUV6PGnxfLyfq7hC8AAhHw6kKH9+g0+rriqfCVnDtOZhPwthxP1huGi5H4qFUnQhaso8SGv9oK6+Eu+NhoEOsA/Wr6Z0pEkoR3rfHEz+TyXtvJ9fQzHjz1tXgk8VVcZeBjT0VBe5hH0FqFP8mTgTzYQP42LnW/8n/WH8MLdGljw/yF8/fNeIFovWUli0v6LJ7+42GooxWMzoMn2D5EJg6ZULQsNKwv+TV7nfoP/jIzZ3IYwf/zyIvpZfL9XPX7euHo7gAB4yDwOuL7w2z11YCYP/xPb8IMKSIvqeCq1C2POy+9uv8jkuXjjO9ILe+9x6/oI8dEB307Oma+3oJdxwdRlMPu0u/H+kPj00CG0fzorWx3Oolr8ZABB86ugS84IDTBbnqSxA6gFjdvaYfCnCCApkAZylprnD3Xa7BDeDeo0F9mTzS+D4yHM3doU/54sgffRr4HYrM3l3yPLpldCO8xxtfhAV3rJ+T4T3Kw2W/eTQj1j1g5v72yZb7+GbKtfb9djL0HfGRhMfpIi317cdBAWypsblJcpJWWlTGi9cQCIpzZ0T3XBDb7LicqKd+tLKS+TXDBP0qlBHrtF6+rl3CPd7q/PiicJityObC3eXhZ066fxOu8r0ZwyrXzyuEUnzQsH+nzOT2T4gqME9Xkvz5dF1wkiR4KJGC0Y9KgXBaTm3fFOGpHOrovxPWq1WeEtSIgubVTjL5WA72NrJPmY9ee6UmvYR3va43J9wU3b1Xb73kub1VZeP9zxW9hu43Zu43ccRrggxkFzMZ1HEhfMKgBu2tfyf4ikuR/Gl+YUeuve4TBwtYVwsiCX0X/y2wnf6rJ66FvLs9foWZVwhwj6fGjF+8SF7v4+Ytx9dzMZWtV+uqriKqteWZS7m1co0/TgQIvAAAAAAEJMAAAAAFh4iBPKNz9pRub1BGflFPEi/UCcKbsU6gQROfhHi7POMENLCobjbBeuZ5+Lq2qdO00xVskzLKITN2V54kvwUdpCpnjv94bhGtRHF50nsGPDx8I47ENslHhhR+H371qOqX6bOJsbD32cg9P6hCPsmG/Zl9c4INLUR597yD+PtEB+YkCN9/rj9sIPJ+64zPS1fXR9YtadaOi/vf2rhDtydJ0hog/xdRSeOen6i480TxoLLBj/F18NXWDTf/gori5XFzATLaNXEb/BRNZiMaIlcpJvi40a7hhLIaaHGPtcX4hplFYZ4RsyqAErKwPXxuHacNiLuZ8PEB/4mOhr4yL+2Untk+Mz587d3lO9eEMdHEcx+uh/hHOMvnGNGeAZTqFs505Pr6GVHQgHEy36+BbxDxs2/Qu/jZttSOPj/vyc3n8JWjnNfa4Kp/4Ta+SDNmhhmWdj2JtSWpOUQHCawU5cgQVIksVwoN5+djbkrIsiG46cPeayCPuzNr/2/jJ6p51HYFDCJF+vaNgg37kXj7r+uNw8pN5dhCV4SsEy7EMCBVolxvwvcJ19J2+QKcMxDfqhRd/NjoeXx/mS3mRjJs2qAz6T6woC3Xvu2T5ePu5e3h6CNLJt4wrx7Pbl/jfjaxkwiXGY7R+pqb9iGv6LdYzMEPmYypMNWJ+eBFwcVnhQZlypFcgmMpnf5TFD/Bf5+n01X0eI2EMskaXzxk/J+RMtB/MN/Jji8ZcvIhnNDF2Euy9TZQjG0zsUZmbjNJxh9WMXDmM4rfgPa0yGNZyvCHodERnuST51rS8VtXI5mmCP0M6Exb+H3ffsxl5G4y5fLx6YlcmPnYGpW8ZShoYXXZNEKYYTAje+N58lRV+0QZ6vD+X46SdsAkMD2p7p5f0A64fx+F/Q5QwEIHB3h69AP/G2+cblRlRvKWvD4vb0+oyw72uyOY64KemQzh5f9hTh79jIIhcLi1QtCHSr6lt/9kEl2GHjcBjpdMMroxcFh1jIgNCXNYhuFPDtp7evsL+G/HF1/YKV1Y3L5eoPGoTH0MfMVKBwSX7HhfheCzJiKQ3Z39foX4IIyGkSDcs3LT2aAtY0hlO+67f/G/OVIGh9D9tYjGeYNiTe/6uwpUmZF+v0Mw7+F5sJs0n9bf+4zuGkJKOj1dmWdV2pTAr03heVcInndEC1WqoOA+tai4CiuRM3gWf7HRahdFo/rdKNwf+Plouvf3ztEpl2/2Lw7HfNCCFHynjAn5xea4d/KVC/x1tlbl5slLgD3y+wWz8bQZVFmN1bZhyRcEjxn4f/efOMdfp/h38Jt3B2XsYixJbudV+v2CX42nYpMhAH3c0/6h3F2O+0EVbtusKbrypTC/sWT+6xuVkBLypFxMb9X9z0uxtEHGCt/mXIy4bTdzGu9lQ/iY1okOxTeuExmOcsy8PYZSfHY8YITjCTN4OG3BRhlnb9jxTBB4142r5P21cTGr8HnzPuT/7G29QMEMJONmJxBEJ/YmoMso5BL3gnt30as7LYtcJXfryfLXQX+x0wazbhzwVR+v7BfC+OmMfVfs+7Ub5MbKtDcOp2IXntfy8dG8gQLJMwJ18qD7dRfvPDXGzM8jSiSgT2ZmECaLC9pei1B8/PfeGft/lBD42pk8oYKo0JZOxVgRH3Y0OoM41WbN3djXJh2/F9AbFAP43JeOz4zxe+pnyPgXvCGkgJXrj28v2pyeYhvpZWoeSLHuJ07UTzkaLKEPOeiv+N0M9qUcCyM9DPDVVZfMhg1CBN/8Pd6aGsDZ0NjzZ7zh3Ld9gahzAane1flO6LX+HtZHr1wsE2qA5GZMoC+N0mL9kDG7xwvgXcvrp//vZbAgRq38XRhhyrWBsBu9+NhrUEUgbPibUod4eHG+K0ISofXEQ+b/xs04VpyG2Egge87/sPIawjnlnvz0YQQH8cIcVaW954OwW94BVn/8ZQJVzxe+h2qshWoPh/I/nz6Gbz7qP32eu6jOOUZwvwWdLL/qMGht24QhlF0NcavYALapf1f9/viDcvSN9/DsbxgmvD1E4UgQnW01zlQIpjv7xgrX5xj1qHaCEP/tFp319B+T73z1oL6adWFNPYy47879e0kjAvrwMLAQDae5GViiX6BfjZwZrAxeY0ly7NnsfkCAdcI4wBgITMRbGEvuoAgoJM00KZ0vGfDlv9gjcuN6J4kwGccBazDeEzFvR+NrBTmJ6sP+/tUWEe3ELRfh+ZwH1HDvHjBKErrAXfHfqAIvItFuLYxiLAyKRZIL11+/J+vjPuLKB9/lh6GGsruGoZaMLWgR34yiT/f54K/+QtV7jQvNQL3rKQZnZlDCrZLgSaDWgYIE/4y6dUmgvS9L4ytA9vNUefsfa2Wn8WFPatnMo27eTmUs7MTxYrmFLJf4RjLa5iFjcZkd4ZYCHfgffnA3Ql7Rgxt4HmHBbV79fzeOkTY/z/ek7ba1I/1WFYWV/ykV+NWMfrv9gffBP42+/SdpPG79+rWdGUiUW1/TR29gt3w+433Ca4LN7T97XvjcO9O0f3DDo0AZpShgupPOVWiRLGv7H8ZojCQ+NqvxwpVoO+MEoOsKe4fVuGgVPG/AnbjsNAEGtJPk2j8B9TEL+fR6r+B5MbA11225bJc6p1n1NUHt4bXqAuHunwBpX73xfRMMyun43iHZ1eDmSRGccCGCffgX9aNB58B7n6H+io9OyjhwBZsIIUj79xDmwIXX5hBol/Hk+GpfGfCDj8sxcOqPxutBDb1AEuZ44AhKLvUKB32S6iy8BRJAvNy/hCrsrR1aSFaYDEcGWsC97EZBJLk/4di/eJWEYJa1LxkJi+kde2RXvxNqYbZCUk+Beq/D7ViBp/Yg3rlCdvxMgvjOLaMPjA1/Qq8+bAo2IF4QxyO6aHeXxppRP10xN/lU5P18ZK0aIhqP5LTJk4K35m81x4E50XoxABK/Xxtxkx3zDuOCewP48RdQSSPsDvq5Ak7BNWMa/06XCG5T+yFwYQifWocn3pkzZzvcIeMnD8MKEsHq0EVn4ep40i64HgqAYOsFwlUevofpcFXBBGDv5tpbSTziiHr/ubYJXEO5KOm2D486HRsXxuO/nm65z8GqNMi2GgYa/D26vvsX2II+Oaj1/rnBYG0Svbsivv74/w+ixV9iQaFk9fUbR/gkmo4IZeZnpjA30zC/cpzjEN+P7Ag1l59iF26n19TOVI71o94kzNX8ZVvv+uF/qQaOoHw7jYdQ+B7COT7ShqxnDkJ6oGvD/abylK5L0nDNk74bGVR1tPHSS5UoyrjKWfj58oRj3fv0xuvC1QYb/den/iqjZPMoQ09HgRNyfoyF8v+8btXq/arp8FQxbYB34lpRkxIjv+3uf0fxPGRMa5O9/EdvTockPiTxmzw7YOh2Gx/S+RHXp/4L95rdp3l+z5P3pXrrfXSqMlP5yCgrgaCbZuce/z8ZNnJ67qHvhuG+6gOBSJfzqhxDgRhCpcC/pfG/HQIOjWCAjwd2kGE1gOatb/oW/hlDFA70SJf0/hT6A4ygPSjO/4JvHc/r/Wlcn1+NuZYaTb3JWCmQ9n+yUg4C+GoBu9hJ9dhf8bBnLfQMgx/QC9NlDTByFbxBUmNDrfJ9p+EH29Y33kSd8IcI190f43qozUjVXAlUWZNDfvnhu/o0bGy0cS1/pfGWiW4mE8Mwi9aEl8FAxWhOh8yG/GTCrTE8ECWCpDA/V5RQgmOxKGvXhysXsdxsqh0w+hGRC3j5+UaCheww42x+77R+NUfsbKWfwv3qzIu4aVgVCoTY8Ej5wr4Zf8YpsZX+V4VJ+UiqEecAATGMN2hYW1pYgSEpBB4io9/4U7yC/YRazVhg7/R7vi4dY4ao35O6j/cue2yXJ7v0Hs2ckTS93l069cFkqRcbLoGCEvDiaq0CgIcTtGO/PKBzjBeZ8ZWAHb0ATYs3+VaG/H6t/6CJaZKY/xs0Tw8ZiR6WxUYUJiDPa6UQvFnS9jsc24Z+vVC/jLUQbZWQGwPIjSYbuiV3LbkF4eykRElW7q8ASVhdIWCtzVagm+xMFGwfTfuCq++Ya8v9XDsPSslQ8HxK9HVFZnjvmThhKbPYegf8PWq+gJH9QByuHeY+jHgsNcKFUDIFO0+T0Kj+DUEFi5D827HvwOwuSudi7X0XiBTmxiuJYkIJiseEIPAgOM1U/vHgirXKl0HvVCgct6TrPSm6A/xtx2nwUqlvp41lr/Z27jL0+V9MZx6H/GafGE0OLmurRSC0p2/h+UHa4305HwJYR/+2KdmP3Y7/8Z0RSEO9tSPzD+FGbqAZHlaSlo18I71GfcQ4fgho2i14Zbi1LBaZ8yC/h3D0KZp7GPADFoWRwl/X7FyfW6jcuMpofjPAnkoReajDiZOB9LifVFceXP4yLMH4FgvcY00x8I+PtieEDsMel5Ucv8LwxB8BULy/YX/UDSBXhHRvNIkWgQ3fsXwrOH4McBA98Eh2/qz6LvhSMPX5RA/Tz9s+zHHj4wDQa1QyZo9Mtc597cjXx3u999cZ6a9a3/j665f1fx++/7vgw9V/fT0JQUY4U9OQgkF831W3r913Jgjg7Ke6osJi/d/C+Ah/y98X/W/6iG1JbOM1a6jsH+c+++Cru9N97T8rVj4d6+620272c06oREQUV9OT5HmwjlY4ep5Zkf9B+m/fq3l6+SP1wjWTL/X4/ffzdL8J1qvTXE6TvP3qpSQlyZyR+Ou+/e9cIYybL8v28nE8uRur6Reve/R6/WyHCu3I4Whp3j4ygbm66Lni3XStcFwRL2xbyCRVff0OF1r6mRDwoEe+X++SLk9VokIHX/hKSv17V25OSqdRnC/kDAxk4bi/WRa0/4R3uvu9xZRWsmxrPq4R6xzP1ws49oFWtJeq1YbEBTv6016pN0KCeubr6MEq+61wll+9/i9p66kv2xPWvrKOdLVcI961yR1bE7t74QQwK0C2lfoB+7OE9+93TCF73ffkxBObpqxYztb61a1XwWequppa2PVs3p4Ca3SqP8SfyR/BPly9lufBdVmLt93ZI6mHZ2CpHpAJnUk7+PhNw5Z7FVb4Wi79XXQiGRqv0h1pVJi9uWFVIQKSoBnLdpd+7uwaUSI+Cbf5WGfH+ubON9qcOgn7679o3lUaljcJ2w22hcmleN4IJ2eyrKwnlB0W/xQJu93ztXBdvd/fQgTjb+CEbGUFPao6jdahVkr6/XWJBhedi/XzT+nWIGVqs+ddfl3rTMkEvd+uE71rVcQhfTy5qn5Bla9Vqqqq9FH6qTrEsNjUk+ZXQK7e7uf9+CUU8/Clc7K+ajJDhizX88vE1A2lHrzMNmZ+hMgYDOijR6+pXdoZVa1XmovLF0gnT+l3CfJr0p+a2EutL6KM1xkRMzlhH6/v42X/efOg3d6/sp+CfWta+wKNNQoECTwAAAAABCTAAAAABYeJATxEGA2Ckdl9TVWoHoVwW81Bj5zSLoXhDu+wsfbaErZX5cxY6eExXCHNzNIUbfvj8yIgLgNK+QZ/F2DOyYR8ZLrfF50fhlPaoa4vnH+ahiENbBH31rkCOHbnBP36z5v6fk4v3ve+/mzG4fZats0cu+UNye27aQypUPdkUaNXmYrn4rGQrta/y6pqNFZ1IvQnAfemXp5osi8IVXap1f1BFLkJ7fBBQSohomx6VqrP2ffidbt30QyaPGU+GkvLr8SUOQ9H23HzZbWJ5o+emMz5ROG0jNdpNX/qwNBh0yCYZdxolwcGdhOsQT/tIVhhAYUYKgcZ8/xnXeSQzUiSCSoe58eAArqF0E68Z/xPx01rBAYf4J3iSerdzlxyEVdAvs2N3fczQmWnoGW35VC5OJv254/HX679e6d0ENycuv8vD7d2bON7hrvBY0m0e03ITwulyGh5mv9gYXyD9L47SIWTD3+cTCZznuo/uR5FXNzLrrk9CP/mxqodBc5P5Kvzy7Gbx2lM2/GzSY2m+XmZnPHUxPxhIU8vFYVnEodqh9S6CmSfVt0FaTdlXzlklr+k+M33jJGuKtmkgdXl+TyVfGTQw/DSdhPnTQ3cke3UEHPkCRTuD/u/+QBA2d8fPPf6/joIJK4f0FDrvCB944F8jMS/oBbyxua42GA1VkIEbfc3o/Vr6D/jOFgbamEq/fnY//NzaesCjX5jXjOi9XDkv8gQztEph+Ys4WiQ1By/jYbn7oUu//CDA2IZU6KLjrRJsJCp7oFsL9vuTCFf69K35K/G6cduD5iPmSfwb0yMPVU07Ov0NFC+g1Dqnv9b9B/gvwSNAWjUE1zvwZ16xMCZ16PpsiUv5A98O1wpG5jZPECdJzJSK0x9fgb6xRf0PaeToj54mc4NhA/NM4oUg/YelMZ7YGQ4DXda8tm2/b8qYmaY6Xc7qaXCokTf/F744ID5Pf7DvDk8ROrLdbthPzZf1/0XjZp3piRqOtXz7j5hNP95ge3og5bTIl3XffhW1xkodA5hhyf6425ESwEnGGg2wPWnj9fjJOYsUjvEHEGXDX7KRHJ/dYV7mR2aq8K7+pQKPr7Av7G/Oqjg68EHx/d4IlI5rvY5gsKU21Q/suz8bKN3uzMLqnhbf0f9Ji8rOvYm/J99YQpimf2BeUMB1kJ/VSjNwZwxLg7Fk5jLLycaOChMiBXJB8EIx1hPqG15o+i+NkJsLBCwXHqE8gEqh0VILPoEI/ubVF0ZhDsn1XheBCtSP173ZXXh1H9f0L2K86Rdr42tGhbRBikS8AmPtg08IAmT7XUjJuGBxmnG74C/+JvTjvdOuNyqJAxnnx/XgbDXo3X8Z49NphmAkLgFaDVlYRKGn+YcOqRVhJuQE/jb0o2DBX8gY1qALkKR9Mgbpre+thPEzHgMeba5WE3SXwPvx9hUw4pr1s1xkm/xtAgjJE0bhWAIv0iXRMGB5mvAQafr8VBFiLcBvf/554Z9WrQY+B3MF1fUhXhuDdA61G1YVzBh3K3P7A//n5w3rgJjTQKIEoRUMCfOW0bNW7yl4uNwbil+0v1IJoDpj5bf8Zwi/hcIjOJhUZ7AshvEnktwfyKvjtbfThLw6WCLQFr/77Ffp05GTicujBTycE/nIZ1O/wtzk7QAT1D8Qbr+iyfX0CDIDePFKF3xHdfrft96ghnhJAHY24XD0ZFBSJejvy/b6/p+zWl5P18Pfc34eoITQGeve7r8gQfUb/Nr/e56erf/x1JGeS6L557/BVKY/zA4ckBM8p33LjAfrLzQTfrK+MprBE7lUBu+WyDTgkWmXrrnQ4YVVEV6rxs6JzGx1tYqkNLP/cMCMC41WDiq7glhvy/0zgs4joEVc77zCY/I/1a9/r4y4p3Ngh8ADv2CMFcwFAsDWbsH6LWgOGDg+88IRyGg/HR2Pm0MeH5etyKT0yk8IwHenCzZ1WmgNQcN9fZ0MM0/EUyGSYR1O5CxcQXJ/Ak9iohzGbnhagi+TAvwjKIjw4LGR0ICepQQOIGNOY1Ag97Guxv4D49Bhuz8TU+ebrQe5BX+AzHxn4/6P+h+HXpnXX2++P79stlRRfhP1GRwMvIxqNtxrzs3iDVo2K1HgUxmT4cqhdtn93EieX90/GS/99Knkl433SjvPivK0mrDd4mCjldNYAGyAcHzlSVAvov4zOoaI7kCBBMxsKGK/d8wjcDlr35RxTR6Zh/8bl+N2kHZ80fwJOQkaeBtxYXC0U2ECI/S/79Fwd6AvjJp4Jvq32ezhdobIvkGaBxmL42aPra980GAfOtSO+8DQIOg2vAAdVxrvU9RwrRN2xEsAJQoJvha+ug5RSqK/a4ymYq/OyaOFNT1JCHv3KFobC1Sw3LMvjhYZPVBp8Z5TrewMsNUFioHet88u9H/jL7yMyMoD/IzCbgEL3QfV+WEsOej6cuWFHFhdvj4hFpi3pSnI7aCap6yrb5sMEEsL39mUzB4blf5vZBP5g9TOSc1bfYzfe9hyCDROZB+Knlj6fw51P4zqSowibWNuvAp6igef4YQ8IXryRkgDAgDZvydEn++MxK9HOxrsOasZaS03vGCrAbv7xtuDrh7exmWowVLZWx0AZsC+SQ7PTiIEvicwAZiHwjv5eiUgejgntCOPgifG6dUOdZqofyZLZ/94+XG4SX2P+M+ODlOqVjBVBBzJ3/z6fvCv7531S2MlT91YWsqd43A9Dv1nfb+4xQbi4SrZS8YNDqNp4vxxn9xE/MM+5uIIsxaDZTa09n33WY3RdCf43qCB0DgiexnZgBoRC9AXN8oMt2E40V1OHePMDNsi9DnOZVBp7BJL8ZEvv9GRPyvbwrrBmHQWPxkCCoc3z5EXj6ZDY7gH7w81K87J5wIPzhCNTPoskB+wpJ25L6GdrpyffTpiMIRgp6QTIp69r9QQVIR14Q6Zg6OygL8yMqP48YsHHNrwFSL9Xsr9+/CFKqvoxoQRBPchto/+4tHeZfjsrT44fpYI32i/ySLjkAIIVFy03CnTy15NaggfeHgy+P7/++ItdgoYQG1J/3nr/SpXPw/S/GUDXvZDT4Y5UPR7wTPDVmlK3zANYJPwpciVlU8+7FAsFQJFWGgWhRpLeIJNXiIa1LLBYGBy1WEeRIfhno8qnYF8ZOrqqDyIOpJSdfJehWvimcINLnf5FHW4U2ZJdwAiJ6WM2YGNYn4xAyG+cGL/HzKQ+A1otr71X2ofdZXtpkOof18KU03y8GzGABnCFcUTAjoLKUtYMInkQdOa3mtuoj8bLDpePHbWMnChkOzOD6CxscRRbIUhxD2+pDu50fG1hsVAtGGE83os2qCJ+gdWKzAI5i4ytY4aC1IdD19AOn7JptRQ3JjRWtLggx8PAV2ghwM7GAAj/PkX7Bb0PmTtVsc/CPKUB9voFnW40Dw4Hx05W1QTVGdtOgbsmvh8x4JxtoMGt4NXHKKDlrGQ9dlfB7nxkOfFx6TgMPQyJVw2soQn72y/GZlg/svGTzYOr0RDF0vYNKAHwzfzxFLxstyQ6S3nXG33BV1majaJeX3IsEjTr0rrXIpzxl2qJeQ9/gp4JPrGf38CDGvvwq56/QX4dgQvTv8yofzclBGvfxOiwjetr+tw9DFuvrl66x+6s7Hvrca9YvzD5ot9h7P2QkeJ3xskaGH6rgsQpwjjYAlB33XlVUetPsD689f2VcIcjtjKiwz0e1fY+Mpi+PXuw4hoJ8j60hmH17PRQ/A5YLYEqdxLjQEMjwm+ERzPZp+lTqfG/NsPJIUG4NiHUd1fx6uH/Y+L9n1qM/Y5ox0Kq/4yNUV7cx+NjLgaIK8S14Kbw6zFYgjC2obCZpmarX5SQ5S9P7XGfIfD99XXRVwq1rQ+kHMGKErCX82h/IIrbOBTr/sccrauj98J6+O95/eyJKS0wQWiovjSuOGSs11/pdPPx8K+yfqrjIJ317s8gclWSu8+bS7iOmpO4g7q2QcNW+ELnYaekv9NcTP2+X3JdS0KcFufsC+SJiiGiYS7964Jcu7MZ7y+Mr7pvfvL/HXf6e7q0E93q63KrlLCjkTBf03h2svOL7/u6fhDiTVpW0uev9H1Jr18vLnsI9/WtvmV5bj833p10xgrNyuTBTTx1B91oiDmndU1dewQ71flJSIwlCdddVk9OIYLIueJju2m+99cm2Wnomyn5tBnh+k9Uf9yFlgxr6UVngtBe90nG9EBa9e9osavXTvL8VXprUmpbLVanyZj1fsuEVhTaYXGCJ2uMv3+58lp9As3lw1Xvd7EvH61r6qtytqj+qysvCVI2832wQSeQ1cwYGl+2v2T3wprXrWskF+0FRJSVxNPpfIlY7fx0+N/fny+Ugy947koX37tZty6nFLF8I8CT8BjNggMoICUG+Sn7woDoJa97yfLkNr1TIJ61rn4Q97XyY+Wtb2F8dQWrJ+v2eV7xraz1/G0GpGTe60Ed5++m/bvwhrS5VPt+uq5utYm7QJqbeM91crcIShL176Y+TOvfuVf8d5TK/P33Ej71UCjTD6BAm8AAAAAAQkwAAAAAWHiYE8G4v1DsPAeJoVwEGy3F89Pfwj6SMNO7Dih+kURM3ujcI38pBqYTsZ0i1Or4I+Lp/IFjl/D3t1Qg3JQNDJxdf2/uqZe4Icn/p7csRf6jT6iNQTuXJ8dEOcg8n5auP8Ow3hfmZgeoPvq/uEPb3ZFYHyD9cXl+wR7w9xfqR+lk/aczcgehN//b7ywuif62b18IbxwMOlIMSiB9KisIXnXIucRdePC80zpWHoYDPu+Ci5sf7osFbrhrOdPOk/+mntjJ4MaSZBfXtXV/Od2GHXXrxAb+Htjtv7vKwWS2evoXPxnLT0DDiXSwQwygK/gawRI2OpW4bpxkJG1HjBBd/khjoJKdBdHm1DGy+xfEaGRWeUbSf2N8v3/D8dEdeNlQNrw25KlBAqCnGvvyClKoWlcBff3nDA/fSCMve7/N9ltnr0/aZ/cmL5+emRgXXFZ4cfMBqJ80NdhL228ZONVkbQRmbKo2yw1Zw7hdVYrPUOpOzVtmTJC677de1Jq1CtbQUgTt/NvruTw4tj0dH4cdx/+7bpwx3w2QrIyATcnKVl/t3GeYlwP7zyC8f9f7yeavhTjfS9UdChKkak78CPW4+48NzE12n7jQGbSIp895L+gH7Hy77u9+T066BBpdvGRVUEJ2WB/Pvr2A/k8s9SMPWweZ26Xj5EIT0b+np1+3k9tasZwQAbJbGGgyn/XPAy9mWWmVhBP6ho9fJcny10NlSbk9MOqDvJMEjVzYJcB9Ljg26MNFl0ga8r6+ntRr+wGx7jYabt/MJaOEU2B4GpjIaN/WmEbymr7c+PGF7P+QP2/wUFyXefdfzlpXWMrSjIut6/io9uF8gqqpkQ9oYCrVHJ8qcjQIMbBHhL7QHncBpAOtLFpGR+lX8v6jbWRvCvz5SX3nr6ipVkrUTwlamtecGL6/s6fYjLuEbBgexPMZ6BBMIQBR7dBf/yv8Is7uPRNft8ntJXhXWa6NUeMMsQlyxbfq+lX42DNuY5uDLd+ljVfxSbxAgZg5eMWIeB17T9cw1KFL/Gzo0ENn2LSONinoLmJaQwzWi/8PyQTaqxzPu/X5gwP42O39RoQydawD7a7rbnSg/FlrqiyZlHIPN6LXKxH6Jfgf3D0d3k8s2OQgfWum/Mxof2x9U1bXg4F1T1XppcnxP4WgguSOfUSZvj/6x/2Qd0NqhxDd79eh2JP/fXgvDx/B31sv78bu7pUu+ODGqRuaMKf/Mh6oTGz99cfno1aT9+T/7rhbA18urRKdF5rxxTDbKUZ+rbVz4K+XCsYYn12vFq8brjh+OXbh6HCqIXoC+8fIGNuJ9Saxfo79jan5c1wrQ7YrEXbuMGXWXF4LFS6FbxzBySbuvvLYHs0BIXxmzLm+oIcFYIExoC7yO9K/UAAeq4Ny4z3IbAqnrxWPBAfxt4r34fRccgMhO876MJSpvAQJfgT/Ty+WekHCoQsSWlbMG0Hyf+43DefIPcEjvHgwEzcv81IV1ILnsGOwP6+Qc8n+ljJQmw9Q+0rtcdHYRFS5SoROB/a5JVHFCeUU8+zeN4ov2RuOpu9zdgPOge+Y+L65P/wtGUJggPBE8m9Wh4MTnkaf9fUMzUnhX0D8n7nqM385JQazR/eRrYz35yHeYmCDP6d6Tod3MZizHHZf35P7uQEEa26i3a16h6rdkBMPEAs6+h5xz0uA+u+Fr3ntf5ke0M03CFDqkf8fsF6Tiyl+Ic9qelxp9mPDc1Q/CH0z43eSc1nKaFif+giPRaVCO4ABMIHfiaDLu0EBLAwHqcCVf/4zuq4bRHirCj0DXS6kNQ8l+Q/HBMeMhlDfVYTNcMPq5x6QZk1Bv1ovPDqATk9/IxnkPjsRoezVhqDh9QCHYZu/gloBDyGsBErk5XN+rwvk1tjO9CkDAjaSUKuETPYQM35gWQ3172aP56sTvbOMD7li/iT8qXHe6U0XzZqv/ZYADL4TJ71JYQ2sQ0uufeX6qRFvL7J9/jdzmLyDrDl5WkGH76/sK3eNzNgQP1/HtEXD4Y/FkI0e9MN1WL4PTt0UiG+r2f+M4Q+nakvgleoz93BAd0awQRDhW2i8P4Dvz5zfgl343w0CfQrITe3aF9y8Rjdz3RcET1FLSUz9LFO0qf5SJ+FMkndm4xGq0tgjmjVovG8cOoBEmrD/L644+ccwE1aBgwGYMNkHgxJEwsoYH16f2+MqAaCjRZF4OUzLwAOuCvrA13QgynxwwlaInna2hM5ilbd0a1qscKoKH8FmO1+Yx+dd/jO+XDqe94HeTDlWTARFOXIrl4yA9+tDX+3FNXOM9yk4HiX3vr+43YyDwc8NcJ5mwcFQDQ5jFdif5rg/0f6iLon7bZIQ8cNzwQbuR9q3eMwR/j/Pgdoe4+KpHBsBlDGNaNMxfxkQvRlst7tzhb+HJZia4KaZKv7Qoem8IE1clxwXjdEPlo6eUJVghK8J2BuSyj+MAcV+y+wjk42kPUSomg21ZI1KFyf9FQevZQ9tUC7mBd+myLq+7H1kYzusWFwzbeRFtGhu0OyuYcRe10oqBCPfoLhlfb43M1S0py8ipLU1474KifYQPQcEkuHHSc5jDWRfAXT9hvOFsBh1dC0x7P/GyP4b47MNfmBdxFPWA6Nykb6HVAP9js6wtdHYL6j7D6pPVM9817cPFWwNsfxt9eEPKxjpzu66Dfv8TkhGR3jT52NCYYXYJiuXhfiB+O94scd1LYETB244AlGT28+vT/xnIx/Qpv55hzdIkekH8lC8XpIvoKVU/x3vtlD+79diMMu/H0j76J5upY+K67R5ap8/jJs/OICPVKHxnYNXJ31+rxljhXtFTAnKk44Bcog9868ZscArrcZRATNioz3qJ/sRVhinOvJ9u+Mvjo0Z+yXXwbp5IzkMQ4uXrDZ4U7gkPAkrRDsVKBBGghDtf9NhtsNJPLpeNvWXxmm47/fqZCDFnVzj+Syg1RmWEpfpvDcjEFr5P/cZDCc/+NF1vxrbDE9SIQNbBS1hJVj9k+kG1cZnwNxDXids3YIfT7AziMn77j5SXroYyE/GhSG7278O2LVAeIVzBR71g7LSHT4jR6+rPt5osUuIUmCK/BZeGFcXkTHwAj+313BLb8JYf5hAzpO6ieYQMYaJtVwU0N/V+Rh6J6be0ELvPQZGZ56k8L6/BV2a6fL8Xwjgm/PbhDvgP99vCXDZFLFFINNjXL9wnhffyf30FK8UjFGVOXi4SQdiy6dU4BtbIQ1neuxKGr3En6+N0PDddaakDSnnTnwNowhsYYcoWJiWHTXhmNf6H4UoU8g1fLLgeNRwM3rWgN3z4oHz+EdqRmkx5ZOI1fnZRT52zD46OltxHsB6mUFErDvX9hRveQV8rSCXt77dF2I7437+CmrtTtffsr9YS/HfZ8bIr5v/FeGJUE3Tr0unbR9Al1YNFoXt4gI0uCZsCfM0LlNECnjiYEnEQjWr0EY9MzPh6RXvdGfwjWtU1WuriPc3+inIQVIFy7PC+if7lKEONzf2/Li4yRLjDq5QQBMGCjSuT840lZhSvWVyeP+cdjIpC6tAFEhoIhrxn9qKwpbA+jsoAFhQaN+luIx8AH4kCVY/tY68bA71OnUOSEy+//xoO3h1gZ/nZr+j7jvz12hAGETjfjJRLoqxP1b4/flmu+778Rwh8rqQEayH4AV4SFL6DnHUjX+jrTBRT7q9zoquSOsI8tjbylT4tOThWQVmFfevtfxGOukbI72W6hG73f9z3BJ3V0J6FVoJvfjZz2I393LXkIEKb+93zaNvcyyur87kFY54g7+xCy4dk0Cm7zKBuz9CdT7skQqwhp/XIwddtNxWbKffu3su4gxriT8xOVy8Ieu7em6HZ/6Yd2l2GY6mNrFddPE2gpr4ydE82+e1PiF13Vj4R09/y8t/3OJ7Xo/u/WFtiNfVRdOW3OMUjHo1Gf0rtjPb1XVV+n1lidap1uOr6ms/kNMGDy4II7jPNzGPMkt8nrmFWw9LCNrv9ZdAi93ttRD7kzl7Or1TlyLL1Fisun2JgU0l/MGvd2tjF3oIb+5aPqluJ6b32tMEHjF3reg1/oDVsEt/r6sRHIpLCU0n75OL3lMd67lp6vl4zqq7pX5sqXyqrZb9fyhKtfdE+u3PX98n6o7YnOoh8rauyU3oQCfv794k3u+CCUIBxoHjP796/36qKNOYYECnwAAAAABCTAAAAABYeKATwaDsmVAVXCHlga9YeXUNUrpsnSFuM5cSvr0R9mnFhFcXPo5BKosMx9+WnwR8Xjxb6D7jI6vCN24xQZfO9sJlA2J/3HQG+xaE68zVjfjnhyXteOhlKbI2x617cj/l4wuWW4y5Rgmy81jnJR56RE1He0QEivywXfvLCG7JegIN8PsDfuLgnt2lc3Ge/i98+Fp+Lu+YZciKBri582Cffffwy7wjhtBpiCA8v0HL/bXsQcpJSfla4Q849lMZxOeBRPbGcpmqPab5hBzP8ZsB9vOK4ZTIYWKCoEPiA09ffTkuInQXw1+sN9Cc2Q7h1ASAxsdh+I50C33MIEbHdEpTcj02nJwpNZ4js1FfymLqwQQdNn9ZPbRGVEG54RsHAVMteJgjfHNcYdcbxb/Nk1FtWYa/36E++7UxP6uQTqLPg7LzrCxXG8IeHFxMSMpmqNmXbfwj7HysPWiBt6ssjzsFsna+m/IhUOobWsMnGVoX81ohqGe6So0eG1aY0Ml+PQ/aypE4Mgqe4QqTL20uZUhEsPeZyRQS6K4bdZWVhhc4St8FWSaxMOD7GPCG97zsP4jjOOjQZGkl9a5ZD4utxk3cnChi8RXwLtRubFiUldi+3jG1H8EebDt3lclB7eGXggm+sw7NBjHe8Yx3Wa/0Bhe0P35mfho5dpsgmUyZ8WN/quI4R8YX7aYkTNZBbH+T2e6kGdqT6VoPSef6E6h4HqvJxmNLd2BNMY4tjwduB46mNMOoeyFOCOXPV3C+bBPxIeY/UUyVYPHVMovRr0Por8bBHvO8flIL+9J/Ov12X60whfWdm/GYR4IPZkL6kcY91/t7hT3hlP9jU1/R1AADp9j4W7edTPgRMPel2+PgguuPt6HlHpQsG4J02wYb3GyFZiucaKP808//kGktf3+Mz5ZuRD2BlBfOavuEZrZ69amMgLHByraCFnIsKMfq09FtN+6mMn+uNjYQTEres88SRLByIRagP0g9podpFMzJY0rczjZ4i9H0VdB3f6aWA72Tzj9ZOdfyFpSe8ktDfLz35V6PU7jSZTuivwR/HsL/ZBfk6dJuiJrHpeN3+HkNCcIcELRGjhqH4N5nfqfnTY/lTyfteNwDd/r1BCxg8Cwm9fB3XQSmL0nHNMGEKj0mkh8Gq/QLa4qeAdT+lZUl99DLaNJ1TDC3epMeUQO1jS8brQQ2RngSESazvYlszzvVTKNv68cj6uv0NP95e6ID/fY2RcPIsUPXt31yL71JzmTE/dlAXac87IO3X5yqBcnur43jLQOpTEuUAMEbemw26xg17Q+n7b+w9vk/bTobaI903P9dVIbTodL73X00BfjfeU3NXLvNJibSn/x2YW9o1pI76WVaDfBu9DlwzX6La7BTsV4e0bDCFqHKaAv3V1NhfGzt+UIAgD/UxypfsdluFrw1Gmt4zBw6g+IGQh+H02v3WXYU1IPOkvB4D+DV0onyq6FZGraYyJG5caPJ6XFtB+5kB/SkFsUJxDzHgbyaonZ0q+361G4O1KpPMGDkz6I2/5y1tjKYIma8oTxa2f8DfUYL0Xo1+tcFtbm8jp92Vx1ddQruYaOLsv3/GYE3eN1FKYkLak8H/CC+m85A0AdB/4nFwpYVa17A2XKLUnQ3GbNWeimod93xcCJPFlIgPVfQG1wEe3Af6WDbOwQD4aQnC2+xotsmN2UWbzjuQsDH4aXAjKWhYAYsEdxcow8jFhudbQCT0BFeYdo5YWYMyofmd+NkR4Df7B/iqFt8PLMD/x32EyC6KMUw264D0dN1n9bFQ9qGlgUXGEOBsSmW7vPlQVP3nfGcY787rVgbAbHHQ4DQ8ogNbjZkwPeJH8f36N2D4ov/v+sycF/wjV4/3fbW8VeCM7DAzyPxObcfM/eTqQMLA7f14d4pxHCStovT6JD3/W+v0/whDXZ3AUdE9aPUjvgPe/p9vj8jH8fpKugbKvQLWSuEJjyp7BQyUOY0kBKX9Gz31BvJiXXTdDPhyRWQDQEcX8St6NPxn/3s6crPX2D/jvOQy4NDjstHkstx/np2d72nYIKJT1SqFF+6iyeLUqESP4G08Q29Z6Biftw4tyE2H7afXF/QJlJ/d4/gEsIFd9/v/9WL49DPBnK2WPioWhfxufofsFeh0+JFxjkJjfH66qvCPUHD++xCC1SQQmx2aYirMMqaTg35fEPDrLpLPTgtSzTW/oeT91Khv3os4AASN9jf427EHDaNEl1V+H89DulV4/K7iLIsVr+1rI9q4zhtrqwIDDfSXlBgBT97xiA5nxfSsdfF4/rCEjglYwbb6Ui8WOYP/+37QgWHsLFf1rf2ccXCUOZLQR8ZFwb9qTvwjjCAqFlSQHGgdVYAkmQYCUmwzb+RMKrvi99XhCS3dnfIu3DTHDM7fugKfr+urkD3zib3wmVY+Iln2Lkd4zW+/fObn0iasbgqTTJywJBs0y8zV6sV/lfksfPGYcECj26XRRcFnILBg4Tao2vo20XUKebd4LYi9IPrE/I/1+otqxqGlxBKQqLKksTfWO+T9fG7K7KxgJtgPo4bMk2uA3a9iOwQrgSFTtVwPZTm6Any4weA4yqCM34H8czJy8gK7O6DVF+YYzHvG6/LsbBMbXJ2fT3x2SVwRngaLwSoFI8otUT+6de4huDdTSkOztib6VqyvP1/jk7QvGWigING55wewQSYCTUvKBMFiR/A0fcAENb78fV47gJmr+utf/yCBvACMBCDlvwXTiXnU7fCOwNfTHM3/lDzkEh+l6gaKy4JFetMfAVMpzx2GwAbCyG1PjMsL0MAbIdMYWq9r7WVDm/Hf5KU3YYm2JPJ8f7726xcgI/KHBejB9NuCfNGcupu5f3HjKtjT/p9DfPA0nxlzj+NuRFeXr3UjCmE1cIDXAYNwXvcZcHDh5ytxIEHpz+xcOT8CKHOuBzYKAgLQLK78ZJP+X86cELZ+7HrYBByftdBTnhn/bKY5kmG0tfXsKXCRhjgcShOHTddp2sTNf+pRqaKwUP65e5raGVwPaNa3Y04IA+kiYg9C4NQda1yRIj+ynOLAqRR6RjPG0uxnrwA6F8xRXD856ltC8thotVLz+Db01JxZd+G4NpBZbNzCDfOYAhqnG31oXtafG8oXzCPfB20h7vtyhMrOXzTL76xASPLjH+42v4YDogqXCESRM96t2dYOX/j7zPDaJ+miqlTlYitH8ZOHe4Rz/pZJ5BG/CEELbf61jsjqFQh/QeT3goqwQTf37g16Ovov9jFCHjKhzctLX+Yj4RqTPIDhIjSryc0esQzmt+P3rWNRwO66D9YQa+hDNShwkRseTeHX6CB5SSsT/Vf/ieG+8+dMf3HUtMEH18Drdvz3+OXPXQzjptQv36d93GfaeGSFOXtDfnsHTqPx8IJeyOYfHDZeoOi/GZQvlGzhhWj4XBATbBUFHT08cujYnmmOkyeqH5B9J7JpKH9G9DGxMCvEc/5Q6WATP+jlsgPa+npyfq9BSbYl75TntE5RV3lFLepZu0U1PFEnMbkffh3ba7Gw/xs0uD9EwO/1qMTzsiF54JeM7YRocd64F1b3qoptRObH6r+vpevGXAguZeX39oheKjw6aRQnSRx7s0ka7zpsKorrxnaIZ5kUsPRFGvt1FYwGhG0z49f/jcAwQqzcZAt8C+TG1fqc8B9v/QQE6kX7q8jvQ41mzAL9B7LrM1z9jft2A0ffBACeFHJ/q17IVqC3mh07DEkXxTrBF0Bln4bpEE7jb8p2NjYvU7RML8Y9Vl8E/Q/P3D4y5664Qhuwn/I+gPZGwcYAwIaQ6yb95f0y8Mn7tUM5hM03Dct2A9oMXeP2DKk/B96ZUYA6fiStqgwxLbth42BHuH3p+qwRtj5qw7y+Z1PdIeJdbg+B4B8WqDggCjp+GtU9V/RP42NaPvsVTz66i5qd/IJV9LyOmcblV+f66GmnbIrytqkavIWfr819K38dXxz2CT3oeaS+r7Ds95a3hNhJn+5nPX6ff/H4YhD/MeLyTdQqxpsO+9eFYw5yv77Xv9/m4w3Ev5RU2TXzBAsuorGaXH6V9MEzYGzDQAAqHFJBIcUkAX4rrWvWkS2EY6ID6b93/Gz4x8zPvvdtdfp9D+Pvryp5QwPfjLTXjZQNG8Imd/eKWrK3TOHjN4adofkR4djkPrG/DyCCd4mq59/V4Rh/HEAjHjd1lt6P38ZUAqNDAqBbawFr1sr0T0t/oo4WfrUdZdF7KGR4PfucAAJV2SuU0XbTV7lBAOsncRT6zMU+gS8dffawO/QDSouB6E2H3hzKGAw4iFL/Zm0K0DB2Iw4bWvYPk+rTat7ju1y46XqxERfBWQk0tngE4xQqcKkg64zv7v3v2YF1+n211k9vWFglbXzoq4rv43kk28JCniNLLtehV+7c/Xd3eRiRUJ+Yf07+WFyrKy6755RU6svOM/orQW1Xsar7HojUa2y5qe11p7pO15wjv97x3pPTKVbmixdOKLhamI9VfeycIX+e1paHVzUve9uy4ikXq+1iO0Mv3+7vd1r4LY8Jj9ve4k9Zu0euyou7UsEJ4rm5e7w6J97rERPr8FvVOfKT1bln00ZN9RgQEfwhv3Y+8RfpXx9/vjt5P8Rf3Pj6NeCzHUT3p73k0Ijpl0usuKhGI1xnjo0g2jGBTUkm+qpVIOyos6A1Eq9ykpl92hfTft7ib04c1m9e8VqxIbDXd+0XZfU2NjNiYDNRPf518M1qb3XV3CHrWtd0YENc73pyHfSBff91p/mXOF8aER+RiD9HqctIIB4pvXKdWUmXim0UneoYOs+T2S/CN8X42BgEebPyf7WJnUY32/iadIHap5w3k++DKz1/sshevrqMr1y9etWe18V5f23lVtshhQW8ZWV9FRKYv608i4kba8sfNm8MBdQKNGAYECwAAAAAABCTAAAAABYeKgvAb3CHSwR+YWhP3UZSKRHwyso/W6bQR9jlGzDLJxZ/F64nBI9r/T5YjBE3T/vyea5lQ/YM+HuM96TrlmjJcP95b7V4Z4RxoEIG+4/mYj/KpZ31u83E3vvDSsDGxOAOL+Su5geDNsF2TpfO3K9ZkLtVnEc2iMgmPJsc3pdegrJs6gMZQhHoBw42n/f9z3rieMA8+MCPzE+JiJpgnvHUG8MZRNrcbt8dQCeJvve9pNhDKIGNXNH7ubMM87Q82GNftH0MnbmGtPxhdbWtN+BBqD3iL5PQp1xV4+Y5jlO02pm+EY62IDZ+Sz6Yy8ljGPkYwvaFYLdVIrzXa1MRpsR/3c8lN0jknhD35VM0Leoi/477x/VNSjNd5q1/Fwlw3o/kMyE/V/4IJNppqY9jDtMyemPKuv2XJ+70N92owQlAECD9nBGuIzdLdtey+tEDdqDFn+v6UvGX47sOP2HscdovrX0xa94C+QmYGOeT6urJxusoxu8djeBxiD+ftJKDGkfFYEX41g+ITjzlV3yWpVzhgPhW46Z/H19ASF3Sj8HmrtxmA/vZRkw8PbwgG+3bv0K4KuJ72w/DqaYwRV5LNfTzCP719P7yPs0bgKdTNeoYJ9VE4nB94JqlLPTvx/0GRTYGA2INUXEcIafJ6RgwHkpVuOpn/Fwj+twoiECbhQsobB424xb2GJG2OTBPi+1A/ut8tVvYsgqI8WnkccGuetD6CRaXG1w6Rj4bAmlO+ihtgeqCWD4UGHFAx8ag7wYKKf4rR37D3jAUlR9zhj+NqIcCFqsM/6NgtYr4ms7E2UAA7CG8Pm7DB/c9zgvX0/4iuHfuPhKz+ePGj+nuKjqZUUg1FLOpXIAw9xOMJkeY6OLkap6cn/0H+9w8lkTFw5Huvv7y5b0T+7kBBDyQJG2QoH/KjBrXDBy1ia5z2i87r/KDdR/zZwnXwg4di+NBWeO6jcp0u2cAAuUYMa8fvG5DLmLt84BiB6FwKkpggP2wYJQx1/ofhDlG/XPuNIpVH1vZg//7GRCxtV1eE+OYW18XHwQi+ISIYODuHDUUpyByjF76P6wio/E1VNHWdlhXrYCMfUnN5lyE+/cEEDtlMe/HQ0DvPMok/nJr9/cJcELRuJj0NjLI9h92iNY3cn++N0tMEYMB7dPh+0sQWHEBxXscwKCwXie+jYeD7gZF8N9xuwJO/UPoBL7Mgr+H7A9mfKppIZCpFZdleLyCoBO8RMIYoEv7JKT1Di8Z7C6eRTDFO/k/yF65Of3C7rHwDUUp1iH8MQqstfj/T3GdYb905hjoWOkyoBx28TtU1oZ9nH/XqyfX/xk9Pyjw9o2u8dTbDLJ99ybpRMy77j6QckbVDBk/8PhgbNWdzgfgL/7qyp2D8147ucoNHIGrWj+Vva2bNnG6hJg9xnITiFv7L9AP8O/Ds+NWPg2r7i5qvHr+vjYzfk/adKyfwk8Sev9EFrXsVMIDjaZEO4bOrhw1msGX9dC6JCQY9f695Wvegj237wRtjp0HEIZ7q7CPLg4OrBm8VjUeZntXBBU2/hIwp6Gp/Y7EHjIqbN+D10FqwteEJ1f6ocfJx7quL3+EfBbTfjbhLhoh1w5sXC778woM6DvMpvVlh1/s74UhTWT8pL79btJL3rjMypfHhE+UQe668FfD7XjolvCBq/8oaNg4Dy4QWapxkJFjMpuuBKwLLqHAFO0YsbXc3f2GL4Xnwk4viO+T6aUZxkvkE9EL/bzDP3V9+OjoHAMFw6k32kgvb9bh7jgKYyN6Fc103v3VF/8I5/H6EMZF8zgyw3DX07Cmj1r/rIv9U6xWOrt379+9cJSgvGhsIgUYV8Jve4SwQvnNObPXj+EF7zkGPt2DHX08Xhb7r30uDD66BsH5b9yR0U4vkzWCAhPUtCi61T6/26a+4g+W8lqE/FX5UK3y5fdct5bUN66cmtv1f1JK4EXUbpehUVkgTUVZZIk/kjtyk/+wlMokUZvHqOstE2fz3l1uuN3LtwGakv/LPvT3VZdyp+NJ/bX6j1ic259VCjRCSBAt8AAAAAAQkwAAAAAWHiwLwG7a6jPfvmvLsbMvGb/P32P+ZcMNouB3gj5ucIBfwjlsfLL37fJ+n9cnbXSER0lIlf6Em14D6pbcf1flYWisULKUVtl9JKWGV1HwUSEGb3LIubpO7V3ne5NcFK6eZThnUQT77whpB9EmdoKWj/dLD+ojfwhdi7ypc7MFCrh4n7SJYIZ9ZDcFsyfN6hzLCNqv9DpXE89HcMvzrh+/Gw0+PhS2jDX9AqdfUd36T5Myfr4q4rvdLbeEbXD0E+8I3AUt4QU/Duzw5im4ZGtE5U6/pa6hzXwlW4NYEl5ZP0M4bvm00g71GXhCGOd09xE1DVGKffw9t18RPa23qKRNhE+kD9CyUN4Svd4PDrUxf7JLxMJXg2a4960T7Dh/TKkTFFbiOu4YaRthYZ0Ihr8qM+253+Ht6TTukLc+etCAubjaBf6KT+3w/TOX4Mv7VumvoFuH+FtByU8iqdbnr2fvQX6CL/cNKZ9f6BLYQtLA310P7/ur5PvrGe9/XmRasa/+EdjRcosH0o7Iv3je1eT6/Gz72Mzh+aUCo4yDpuKvHNfsL8b8Sg168NPa8I8OX2Da+UELX43SjI64ZTpI4vh9ShOU4+9VolqAz+v0P8TsZcxtB7CwykTp1v27161S3L9adYa52Cml/t+P147f6cOoji46Ol5+MuGzVXFQQn1vxOhaFFdyi847acEAzr+M2XxyAbPkpHzq61swf/+MiFjquPIW3wuugj2HDCDtIYQMrAR3xwbrdAN86m1eCOYxj/Zfg/Sq+r1xmFnG3x8qTn4xD/8Z69th5MKuPi3rxxu8ZwiYvu8wEyBYZBDdwJ2JhtPnrjrPniYQHymVspOGX4y+ADZ+sz5g0zulrGWqfydJWf++qHru67dNWHkjsQZOHUH/CGsJnFpXsFqqaegnkPG/rTrrjePBJ+HoGn30K+Wg/36C/FY8PHkDHye6r5PfhvhivoI42FWQmnhFrPPCbv4vnWT1KuUIMafycdffavd5P/cI+aW+G5RHZPX8ZOGzp42PRx31+lW46GIrZ53htBderKp5PTd8Xhlfyf40AAXJ9Q314ayf+oQ8jI2+3o88dXC1fS5TpeuEcg2mlT9Ry2eEx5fl34zG/vYZcf03Jx68YnTf43jCb32iHce7ox51r/RSfr4UjQME1HBMusC1vmH+40aEfCAux1pOlC8hQjufO139+R2t7rtrrjOSxwAVQXZmHhL3/EfKcjaDyfX4T8PIgbKP/ULZhqOhAJaPMdcxCgefaeJcL65Cy6391h5yNCu97xN9pva5IQEPFuaoyTDmQISsSsXS3+TPS6UVeXNHquE7U1uE5MRryTa6wxoKeVkeql37lh5PE2HVg76cEnCWHLvLhAYb97qf1YjCxuAlkNeo+VybqAo0mcgQL/AAAAAAEJMAAAAAFh4uD8BvcXHTLxqPOYlNGDFfffi+/HRoGXG3ni98xeP0rjeHhTkwr3NymIennyfr4R6iaTlIsP+EKBhK19e379vUfGLHx2T/fxkZVChnD7iMZbt/j5IGo6F5qjzR9S1rw+WsEFeoyUx3v350jslbbjL8OJ0u7X5TPwh46DpWDO8SVF41QutoZMlyZ4fievm4Y0E8MK5N8Xcv1IWSV8i0kV5PXIRsIXoubDGS/Z4H2E7vZ0+GNZPJLevU2wju2733v2O75/uOmJc78TAme06+qTLNaWI5UjC2Jmzwxk9RFEFSoxk7vS0H9hDzqCpLczOjGEz7mzhG39+D9sL8VnScFbTIMeTDqrq3KpF1LYQ39z0f5PY9XxVa3hMvWR10evfzbGZfHaD0xFcSz2+O0KqEvYxC66BfhZRkspGI7r/Y2T91x3lH5aQbbWDMyfsZJGcb6W8Zldj9pr2DE5HvlG97u5ea8GjNUGcBe1PwN/dP26/kCAaJ6dp0DDyqB0sJG++9og5PL0H8nlieRjb435sTMbQjF1uxhJlqPfDFg1pdPk/+h+7KgML9MnydwTO6cqIdsuOvjJ/SdjL+D5tZkrTn7VKu4hUxQMnoys8bw4rWeGHH11rf83ap1/v3K6sVQ6HGK/QYX38ctu4SOH+MsZjU7EtH9RvGzAGmuy8W0Nzz/2Y9/gd4xuZr7/sVQcuH3vlj46/3kuzd3vfTG+uwMjuZMDD0xb7UMBB9UMv3Hgeh7rKAqh3nxP+9jumh9V5aWneiTz1ccoITyV/J+9YdmTXWuAyCVa+rfXTVh5jdxY3ZPrxp4RB0NrsfQPJ6veP5oT/KTOPsdx/3jLjU031Xli/vvk+k22QKTdQeVqZusiKc8x1y0Qzn8S/IqkXfb0Mo8qs2NEvf7b35n0amMUs4YJ/zYVxulbc+6+vk+6bxuH3dvECuHtb2OGIiXWQWZuDxbtXo/bIewjbxmyWfzR3976CFNb1eKpqrgR+z9c//CbA/Db0Mz+dIZjN8T54Kvo16BANRM8n/3k/+xuNgsQn5R5680cDGy4uMkFI4CtUFN7XEOv0uT/XGw6ie/wPoaITsMzTVt8l8QOfMOw0WgxIgCVvjah7vAfnQrQFhyEIqFh+tR1UbF40sSCL2bvq0ApDBJL0TBxhoTNxzfmm//EUN1HqfjJodn98aFr9j/U2qKLKimpKilRQL6M+YIA+WHUMq14iPsZfCZm8sRfgNve+r0PXSiEP7HPu771ZN37pIfuf6gIDQolP39IEHHG9+Xuv8Tvrvv9vcT25O+X93J/yYXqRO+GFWAiej2b2WBTWXl/oCvsf8p4YwuTvw4w0kiXSf0ljJcLDWe1YcCHUF98oMadeS9SY5/0ODX6BxBBrR8ckz4u5vxuwxVR/Hn8n+MgALm7uw74V/fW47cwgyimOFoXc4d8TsDijwEuydPgXhUbUXpMfjO7ObML7CNiyPw0gne8NzSBO0c+b0PKrxNWcLWWfIafQluxLV10xXnbu/ZuTfYy++7jJZZBbXhvP9F/JHb3vd3pyfN6jKjURIvk+ZCGQ94+mNvzA6EUyvp48Kz68ZxsSvXhIvGrDXM6kG5AkJGa+YXxtHE8DfgGg3qDsxu9YF8aRD12vCehcv0Ne3Og7qKPBOke3vYM8Hg0OCTg9/qg9RnoC2zbus6al9AmB/h/XkyEIzX3yyIRD48KZFPtGAGZvud9TIhpg3bhg+Jf0TfjMffnxuED4KqeLT7EPtHyMsvHc5vjw8/mGikFwOwzx8MIvyiU+/155Hi0+Nid66damNTEemTH6t6iPmjd60FLfu75feVe/xnfDaIZLRiNQfItbI8x8n9eM5ALEK7lQSfQIYreCDx8efOSCEv+x1Gtapx3tP8JeHhEDja15raT2+rCGcx7jguDu7odsjjOvQ3tlQuoMPW0H8ZUPOH314yV6ZtC0GtYCJ/8bIz9+MwAKb8M85RxZgbpOje6YuD2UXl73zGAyzCE8YP6ef9FuXFq926px+dDfzfVX9D+N1Nu8+IBKf9Xy2GOV31g/zXBcnjb/3Velheo1E+58dGX8nr6knNY4SmllsTDOe/nISq46y5yVrFYVjK/FWLw1EdKOgg+cQGvFx8ITBd46CRk+7oRu765PIu8d3ehHMVuRqZc+MxfeM0oU0EzjTt8Q4dSf+yDMRVfxof40JlXABoeurJBH3P8B2wc3vsS2H7CFO++3TOi/DDeg/1O6KT/1GSpPKQYeT+LRAcpcfh9hCwjeT9fG0yJFancLkeyKB/Xn/OFarnX2MI++Bf1gefesPKQV9AaH14Urn9Ww5muem8VrRcf8fLhZ7yepCbjJxb2SeY+dj6GOD0k+kvG6W88xmj3HYHjMEpPRDGwPHlq8PMs/ja/oBbeHxWTr58hIV1EH+G99df7y165PL9PtG86SqsIw2p2hgJzhrWVufOOpBWEjYPuFGg2Avsa8Zsye9I2GFV1UjCZxXuy9Jj3La9J91jPVRHoNzIsO8AmsZYWoIwadu8bRXf/+F16jdnIL1b4Fh/dh94wcZNGuydr27ThxEezDTFJItqkZX8ZDybhUOB89yEDdXjh4vIIAvqvyf7qHtFq50vvuPrmWjBr69B3eqD/3wvCjEhApgQXMk+OggWrsa/f0pN1x3npYfv3H1rrzZ1ahS/KE2wQ/Aza8ivfvfpBGeTUEOJ6jmihLrw8BA31j6WkO+qbcfBfQQBUziiNdEfHgrRCfgp4d3P8RS9ri0+M0sU52OjH37HZsGfd8Kd0DHQvv+a5yDm4jGcdAgAcmoNYleei5/m8JSPtAitUQ1J52chZKnr2vrTE4fqDePfH6lpve+wndqfN38ZKp37joxGy930Lf6eh0y/fGcvfuZ3wwj5p9W4Uc2CLe7BSHXUmquXuXHXvWSnnyyuNEZdM4hHDvp34gwMpXYX9Fk8kpH+DQOcRmrSKRIPV/e91/fpl3uuEPe4+f+/wpe5e+990rsbysTffeGGkziY8mNm0zwyTGnyXigl73y7hRSGF8wfVqy6Fp+YtUu2Kr61JodvDiO/f+IhucYsEkuTRK6+LrVa+lRPS9F6LxYiGZC8qt1WT2nw0BADt/iVKOLj4IDrRf4jSB8D8iF6tdeON0eM3bCIf4/VxYz2Ed7w4Pbt+8QCYTfJ8OO8Fyw8px8cev78juBLHCNX9NtKa6bn/JNnJ9+QgIbu/UIPIcI7UELR7y5oZr2EK+u3bv65HZv2I4nVxnVeutaroq9Nro/Tt1+y3eXlJ8k/3o09tgQMfAAAAAAEJMAAAAAFh4wBPAbvF53pfHGjwURl85k7R8405pcXKGEnzCDw4iwYJOaUajyq23wj5QQBKLWSOaf/iIJPlx/OAwdgTQwHdRkJmucjNz1O2NOhtWSX/fXjNkxl4xlHhox42ujP4O/hfL0jfXjM2MXxkuyN9iM8z8eLhnri6kzNA1PcXU34ey1aPp1FzkExE4IBss/1hQbhn1S8I5ggjNz4WREV4vuQGjilUwWyBDy06TL5GMvvnh3v1EdlkQjvc/duViTj/tXd+P5X2M710UiNTJect8ZjAIqX1nYPVG85mD6Hm4/fPIIMKSrhm9exPpUFE1AKPjkEGMg7Aua9LNqJDr3kd9P8NX9FBXyd+9+snnEOR9cX3ja33UJTpHpN77IlGbKkLDy9mtMFzLbV+T/vGd7gO92GlQURxUxrDq0NQN3OlO7lE2gP+cGDkWjuLY64sQYcxxQQle4ciYVfv38I3xkQG/aoDymfh2dU+/T3dfr2r6ihEEl7l7rTL9IPXVOp7eJfvc/X7Gx88boiC0Owd8eBBU1gOK8HAU0OjtQPb8byf7+mehPmzf9aiWJcJiVcCybEhDxoQ10paZhOGFcQEJFumOiE4Pv8df3un+y5c3ib2Sm7+x9fHQIBRInzzwj+nJ9aVhCrhdrTBiR6s4N/ZTZx++H2k4I1WoyI1qYfq5hfisaOMY2mQKDxPPR9pplxUrg+vL/e1ofvde9Oql6rXfJGXe973u7u9I7+gj2ssiWynFxxapcnyyRaMKluVJOGSoApk7XGYda4DLhmFD94lwnKkeEWff3qVzcZmZhxUK5Map0nnjmZDpSY1VzFCM3G8VhRX/C+D1p67hgN76DtNFpP3eUnKh7r6D9U4vw8UJ5EbW667a3J+34zh5NS8CEepg/HRRe0Mv+f19iX2KRENk+COTqflofJzG24VLPOstBL7/0v1+l05YL+uAPazs7zDBAm3emnl2H/SCd+7u+43Iqt9+EXKvsE14z8V4QVega+8sKbjOAKv7NG0HeTYg1HmpRFi7fvHgOdN/hzzk28Oo2PN8qM5AT7dOw+yNaWitlpbyW2nZr6C09sb5kyhI0LxC3f8nf/YwHvIbSwek2EAffsNrGiWXkLUI4XXv8bcwgZo9YL/adUivvCQiowM+TQ/3L32Y+/sKZXQzBnMJ5JpqKM8yCB/UjKajVwhHonsGCf9qEVNFwie5H6ax4x8mX1G0RR5EdOa6753BVPfDv7MrXnvGzl6DXWFeQe7TP69lsFWxFxpa0UDPbc/w9/ZwCV/8+/WpBmLx60PfIvMB6W60mEIpbIHjoVqcAMLAOXX7FRSe2SzY+Ax6nvG3S37aMNiHvZ76h2NkRfwZYOd5PGAEL+3YI3IlxO2v/+OBiiu5fEw0dg0DfuPprJrtJj7BkBhXAADoYtEgauYrw7zMPGOdhuXyR6+wLyfpJ42X+9TG9mfsVatbPjOBsOt+CQ1PWejqdvwtGoTK/QPk9drD0TLSc9JyCqw4zdUx/nfr6Gi5PryT1/TlXhHvqyk6CsDg7foKYbVFAxoTsOu8z2MBV/+QuvJ+bnUbySYCPp2Q2FMx1QidVm8TbsaAl7cZ4HH9fX4iKve++mIv3e9lVh7d4lupnNYScFptvqYrE/+v0L0cf+8M95z3t0wtDC+D35RctlvFwP4W3LvJ/+ICgaoSK+gXdRuRmNGGmtYJWGUuzH9LT5ziQ85itwuNK/0D8I8qTIuiZxMtkr19BICd6QvqtRuDuIRgUEywPWAi5fQhG08/L6GJz1JqB2V+Ttsyd/ZT9ageekQfAK/1k/9Rsp68CehnC8pONvZfz0pZCFs+yENdX027TFdhn6NL2ZRY6ZDYFsC4wPtg1g8fG07WiA8fdEf45wrON3hmwsIMWHam7fgwGiVoj2i4BLtQ9y9ryj8Ezr9BHb5P1tR16gEzd+xJFweEddDD6dxrwcvbML+6VbfnE19BHYphimdXQUyoQBfmcPQoL+H4aScKb78oEx/CbFYgJTiU9B7r9l3iYUtDaZmOKeM5aJ08vsMzFhyrO9529IE23Qwzn332L43ivHwsJwQBwO80fPj3XYX/DvBnE47/6vu6+i+oTy03d96j924aQf5cO+7f0S43yEEIWF93q2ztr/Ljf7joIhn2emPy6OjE3PR/vuN7lsQ71aQ29SaPq39ZwvEZ637Crey8Ch+gGS1/28PSL9r/DsN4fGfCL9T9f/fi/U0YG6HBh9c0mRfr6JFDupDfAnh+M1nC/JjwFTEL/Cdgr+Ay+Y4Iia2fe7E56sEa9LWaM0CAzWl/ZrOJVWYCCMYc73GVY/KngAqDQH27Mg6Zv5F/pkIQfBAH6jwlGCifrlIM5HSkEaKylTxIQuCbmEnQp+zxoXD+OsRjj6WTnSKoDtPmLtESiBKCuE3CJQtvtjiLCr7czyzDdMhBdUoR9iSDKV/Gm65KUCuoDnq+lk1hpl2SDANU4m0xznkDR6QcGt/Fn2Hpl20hPyajMf0LdfQt1IYJXv39j+nfdKfH8Zbvd3s37COgMnbl0N5sNC47SNJKacR8ZGgyN9a/+O76dpz97SrG4Eo0b7yZkrnzyyOiHr3xtcdEs6SY+1RUlRbmNR824b7/A2fY/k+/UZxui0QzYPRaD5kw1z+D2QPyO1pdNFV4N342Zu91MaOv5o5aQUt9gahOE/H+4NHjZ9y5mE615JR4Nkn6OZjdwBlDrjt6Nh2Y+A9Sln71P32rJPjJTYoF42x7qgMC1XWe/+gN4HvUiq+o8HVQdYCq8YOWMNmQEZCue4OmfAdV+gdBHvxkNIYTQQjCuCWqNyWFiQ1HMGD4SaX7ybyq9rJ/BpjhoQ4avdoUL1/KgYfaCA6VK5hXJyYz08LroZILQHZFqWieNMVsqKrDF3iPaBC036+6icIzy/ie9p3jQpCfisLRI1CFXuf1rhS732g00b/hIwQ/i9DaOP4goN6WBXceWqi2jseQ1rvovxkRvY4clFgJ3IGjfdyiivTDbU9YHostlIRNWB/+Z+U/aGD4yK8wABIb687k9dcZ3KIPkNwX9n+sMMTFFw/Y4zLzpP4rfBDuQYLonftCAbrGWBBRfzwD6EjOeZd08lU7suUsSaxTf8bxp/AjCKGCRrLCFDhMQHZAxaGh04a0ejnY4C0vR/43iEuG/nf0lgGVNy/tk5m2mf87y9px3tC7QW3DqlMPm+kkbbypgfcadiVZAmNHqA3w7v2uXnRmVvSMcF42c/4G9kg3l7ulnnPOwF9Kh8CuHnU4Y+Yf3CFhHXiOcypEyyj9yKAv4zt4gK0F1Q/HjBzhS/8Notg6hHYGVIjS7mbDylnk9rG+cIQ/FovU9w43erffe+cPdqqdNcnX+V48U89Tcg8zrwT0ykXoXAGNZLhEV4QyQQXllZJ92T6KW0gV2rexoEQuYgSK7VWJV9eMEuO3TufmgewVsZfckjIrfCeW/2+tQhLA6TLlP70rj++y9/Lu2rCvnIrueC/pfGavjtPbaCfh5jP+M/cJd/1g01ghu1rnRYj1ox/j4lSeteMnBw0Jv+hx1ZakKAl3+/6rUuOhHVBZN8B9zdrjnrHPYzo9ymrbH+r49pW0ow8PBZAvuQy7vik9fUbmxmnhtuS8L/gn0k4aXh7GobTHX+l428W8jPXXQIeNgdrSWhcxwaggPtAnQa1mErA+f6+wP+MkZWsNOQbvSSmXkvsd00HKMd+EfkFTnI7G937hGR4ZX4isiVvfcY1VjwJWwZwSPAfLPjfmzgjK0hWLUj9GltkNUxubiHoWEMzwO/YEA3dgNHnBH2P1myGKY0gplQgs4U4rv3L9Qp75QHmAAG+93K0I9K/VKP20+9tR9BWvwVcg3veZAWO5b7BBd9y0fDbaGIOv0+9sP909poYym+vent/F93f+Nx0ubiFizUj+Jm5eHSKnhosSGNnU5McOqB7UK6qNi6N2AeX+dRuMiH78fgofEvTXd7/Hfi/X2o/Mc4+MidIvRiR2T6vxseQtM2eGHS8bNmL3qFCkF3ElQPAVYzL+y+NmHGVq1vxBWSL/Cvb/w6n0+btU+GEL80AS80JZuu+wkvxkOOXzfp+tgbjx59kRUrwQO/N2T/xcRWIaoDBjeQSHtiZEP0OrOJ/jdtAsID2Zd8ZrXvi8i1H5h65f913/G0yqBdi98MggmvxgJOtnESD3OngzUX0PhATm5FRGCDhHw/scOolkembkQm4r6+hfZhO/UrOSkMt8iWp0lXuuEfyf6+7X4/fsaIfTBLfAfXu3GfjtNp1Wf0Bm7Fd3jLvCbwYGYT7AhMCSBAOcAibM59dQUDh3AZsxCktq0txkE+174+s9tgNv3r85JbD+oo+oYMvy8NfQ02wx/fxvxoASNFpsjRuM0EAQ9DP/zpNPW12L8KUdEtHUQPAUVmBZwsY+Qn7Tmx5I7vjffqBYJ2Fx3AYUX13k/X9OS3XEfTjAbWdarOE9XHbtjPORzjBKMvR7Bjj7X8K3DcX4KifkQPT9V/t+NoeWOPCBJTCTVL69z9PpJEHZQYNX3XM1S3bv+Xd6XMOuMru/f8d3d773JEj6spPPAJuQhwlxhMdLuVYhZjewjUud580b10K3u7v8Zd/e7u796Fe93d3fm0cK4gnzMkRIFsfP75uyGzrdE/aCeVi3VuaYnsI3Pnf35eipIVS97qSJ97mS9eE7tUr+oyXP30OXLfXyS1aZz8dmWt3gmhp3jNrJ+JViBEj6i37YRr3u99RdXL4nWqqrW0P6+62+7y/f2Eg+X3F397rjvd95c1SH+vT1+Kh6fq/1JK+VkuWC5KxmwvhpTND3r9l0hIoCaCH7+TxEXX1q7VXFb97SkIMu7uX/f3euXog7X68+FvCVMZ4bi7r/7vvmbxlcdjSDA9Vte8vgv2GQKRUE+mb6yp8X3l4Rc0Vj/Ge7t+X5cu71dulOL3IhPGc+dvoV6pKfHshDhC+9770mb9DMy+ArXKem78NO4jrFycXbrWpcs3CO+m/79Dpevf0u1k9Nqawnve98kVcSsbvfx9/fLC9+X3xWOIO5/dRIai7Sv8bl8bw/p/rX9lITzIh5aG+yjIGBy4JHgBQSuBGyHQ+CnRBP21/vZTP932yyHE71q0qTaL0QTfv1SL5pOmL19b4m77d4ReRi9Eenl7fYQvd75THvQUv8ZAGe44/FIxKu/sJ02tfzs/3QEdkdQezhT3u+/v6uK19a4717rqqXJN3LiYsWmPr3vd3cjxi9iOq61wzjdH1/sTz1wT84QBSjqR2uKNQ44EDPwAAAAABCTAAAAABYeMgXxccD5agfRXBAfB/gNebOOjdz8ZtfeOj/HIVksZLhHB9KdPD/HSxUkwvFujF6SNqVBxJsdBtXoKGv9b3Gb7d9jg3jI6I7P4YY9wRYJQSdz5XxeQVHEn3Mo8ZWekZQlkeb667Cf4mNetGRa5Uu6VMfqCfXJn/cl7v8ZeYvMe9+lDiGhe6J+/j7yG6q/PBzLUZlpo9kuMhhezSKkjZgQ7bnBurW9Iiazbdpv+oIAw2um8FMdTH2Nha0yeN1Jl7j8Xxfpqz1xfj9JSZu8/Hri69c5kNusI4hSDp45WUKJfn9E/IXoX13Ps7R69PyPUKQi74/79AIYmUms4plp3GUg8niQRNvv98M8POaZM3A+2f4UynTxVg4CZ0kQ7Kw4RzVHCiPuO3gEyqOD0LQ/x2OiCfe8bBChhvjVIXjPdz56fd8kX5++8niS9uSQ+pmfJ/dYzjE2H11m8VJsaivxwDK8ABUDi8dHf4zJOHJeBUAuqderGYJqw9LhBVoFbzfBbiUDUYVmk+ndOtiQhmCRQk3eXe4WEOHaGJiOu/J/6S5ZP/oZt99lysSqSpfDs/nf3p+5X+TQ7u927092SM2ys/L6d737GeZQH0HSzjmQNgSUXUGwp+uBK/+N5swNlfD8ZDUvad/dYEjeONw1JnEQv7PXQKYbX7dVCUEXXxP+yAdSYYhmOrUvHyBgkTHRrzsHYT3/QV2vdySX+4h3YUppFZ/crEmeO0JnrJ8v0Mjpj8dz87OtqGxoJlk2YUbJ7/E9OOXL5V0Ea++HO8bHR8MYjj/Xpx2SkVXhC9Ss/GavdcP6frlyq/p72161pi7pvf+FMkeaT+pqNyXlPa2/iuG1VsDAY0KPk/vbGVh/70W4/Z3xgFEjtxxXjRM3HVm2OCI1QpfuF+K72MYY/xvUEn2i8tU0v0Oi2yrffv+N9+aM0OcAAI2Gi5lf6CtzxtM/ewmbk4yyaIIHeT7nXqx4Pfew9BeTxknxtm9ygSvj6LnufkFAReHfO7/QVBN6hTe+8R6gNfx4vygdqB26gL9t/+rh/KeSXHb5g2GZ/MMoTBKnZyCi9dBnJZAb3Gw24s5gLNxBVMQ3fPogA2sndWZHBraamOSe4ulsJhckbYCBghmO2MDgbLNhe5meLRNpv1hr9NvTOa+wy09MV9opr7GfpvhM5f4ubMMr00tsuM0DUXVuFRjM9Ng61D42tDR8AuvwKeGkDdZLP2wl09HD1dXRICQSC+G4SbWaymu/1EsJTfzfbvG1eNn9evlV443r+8YKqL0ev2Prxnux4ItLb06SncMpcGtyT6saHjcfBeRsBbJcYy9w1JDITbo7eOik96/h6q9RVFlY77hDOQ8uXKYv+xu4D2Bt9wdMvruHVxroneGGMajf394LMRKK6orQmaEtf6LsbUhAw7xFZdqvzM7nrQVR75A7vPrzz0CifX2DQP8bIv51OoYDU4PN8oPAV4ObYnogNGgfv+2k3hHHzZTN829LP8iDW/NiSfXXoNkwpPTW1CnBC3fuBFsNT0CNmpcYeUWx+7xi+9SEkB/cSpKL83MnvrYKYwIQg/724YOhpjHsNqS+7exujo7a4RXCCvZhYANkTB2mRKj/wItuZA8f23BehsM5r8bAlV4vMZhsaONvb1zw2fUhyQMB78PTk+/bC1cm3xgTuuB9VnS+ykVyJjv4y+PA4tfXwhf/G1dkGCffeFswSjYl0KTF8Jf2L2FIRN1ozY1pNhbYK56owMu03IGfAfj+a+wgAbeuErv3+ht+Y4PSdY7Bg99eIF9aA+wP7PX199Da8cZu3T3R2VX1h4+zpoVp1wI9zVwlrXZtoq6pMZy035K93csL8I9N17/xvIGNtiVSCUsGhlavF4cKG7hehWJjzTDQgr+/xtuXOkJFUgVeQpe/H3TGuDQfXE9SGRbL2fxtDBx279Ac+fvXggJnoDff8JP8fipd+X0DSknBHAOiQfgfGLDc7mGf185iffxvbOMTQjazt4xkHY3dv+2g6l2Xv4BTPgb3IYAcRfn83EEP+wgRkQa6OcOBy9kgdB+Np4NgSM+B80QnsD/aeZox4cC8HATHA3wb7MnVfw8obxBnU4h9aH+Mo570iH8OcSOw7h2BvH7GgQVrxYK7bAxaeyj/hLklCRvzVDz2M48RZuJ4qWnaGCdVA2dBvh+SJM7Hr+/xkfHI4MBiSiHQ4CX6gN/9mAe5mYu/v/vSkh788C3u7g7EdW9hfuN56eY2GjdPWP3uw+Y1+42Bf//hT7qRyrTdnQa3vL3vEJPSKdLGzfzR+OBo+HM6mfera+UQSmvr7B5zMn25+J+MqpjJ/jY8PT+lSRqk3mPDRKoNe6ho+4IB0CAK8qVkn8ox8bQXjRogWZvb+/elzjJbgZcGlJyjlHocYgZfQvqz/+Nkdo7zP+GZzQMeC8PE8OCQIhAQ5HfytwgNRwbkj+tlCyWNy+zsk/G0G9UWBPohgA2k9maFvhWn/WgqeGIucgeO+6X6TA8n6+M8bGasZq+8fh+Ih2XjY3kDwE/b4ywmEcxzhVHC/AnYNt5B/wGa855+B5W/GaVXMMLt2yse0xDqFZvt7boI4epjqoG3b+HqZErmPhRZLCFQMAQxGbiqRPEwv4R6B4aaogdeoJi/FELADeW8XuAuvvo8dVCPrW/7kbYH4/3Jbb8FWP2fxynWRfcPhS/XHmy+/vrUIfem8owQQLRv7h/FbbEnvrQ3cd9nhmDA3kYj+Xrm77r+wvhDX7ykflGX2WtvTdp/jcw5H3BgdWSO6X21XX7EiQcxBvCPQudhfGR7rn4rRL8Z/HMIcOjU44IBzntIpyjWKU28eF7lbsWAMmgpZQ5ojPyufG6DBmHuPtTXH51FXpQF/tawTLZugKd/wmvv8e0e4Chq4ipPIEAVQKaGAcL+YYpeNiJ6+0pPdm6GHukrE6zGuVOIWwM9UEr9RcopsAMJ+f+tLg9ymtgamzH2GbWx6A5VTH4ytHylRNH/rAcSJCDmzSMOU5ep881YGA+wuMkXxn4dT8hwY7+Mk60gUDwAA7BBKID+CjbGx0rhTxg98T+4wVlUC+PrhD1j20ZSxIVqnf1C1BoY4fX1jsDtQz7x27fo3n7XW79VWqxWEzdqCThYT/GY2qQ3Q+Y7W/tfG+PRFr2SCPku5Tp0rdf6K+z1+2r03QzQmYfGPHwrqIbWibBH9eeajskrvFjp15bEvk9LbUZaMKFmEHfIviZ6HbizDsFxCwzvmCohLwO1oEuS4x3OVlRgQlLu+pWl5zM2OLsbdf6BjIwmwvIn1/gKrkxhuWoA6tCATDDrjcTz7yGpl6/4zy03DLGK0hSIDoGXhpI1xnEB/xsED53pv3VYyMWseTghOj7qO2K/B/xnJENf5xt2kRw9uPj+MXCft47T5awVho7h5cAM8b1XLQGH5ZrgGhq8X+v960WN3MnwxESCZpyE13O8O9x9dg+0KLrDYbGgY6Cl/G9ldZhn/NXf2MgK8o/lbq0UT8gtvK6PDrP3yMmKoHAW9w29n6AhkRf4zhGwH36KLsYi3M+Xj7sKRoIdQX34aqX/GdWKkAO1Q9YGX6FaQZlfwl5EswhODEUW5UdV4UFZ/qCz3xty4618vhHRmHB56Owt2DD7l+nlC0nG7b0/8P/tPDdWhRPSlcDCjp56BAa/2SeoUzSmSWPlzoYg299XfSeO/43Kvkk9b0vD/dtpz499tfQSC5PJbfG3azH9vnHtSPI3wyxj7m6/NdPxn1IgVg+u8Jvp+zN2GeEluCPIiHxYZbx2kaROl0N0GEL/7MMzxs1eeCsGwqP3AgUl47tB/utHB/tFg8Tp+NPpf2fxljZciOx4VE0+5+PDe0EAecxfwpseUQFc+zPh/o7xBHRcFJP1IIsX0WONiuVPjdRgL20H5gmBKf8DujMBwCZb/t9T+G9gd/tYPfYAF5daRDfkc3GDoOxxfa/jK5FRwpvqxH8PIRDiDnEYGpMK2WVIobvxlChUcFFOT0SMbBwHW49gdoge7xlWLZS/HgxaMIht7oqFL6gWBvoDICJE+P5jxh2BB8bTX7LykvRwL75RJG/QtXWjbQ0z9gXYffs0yhwUKeiMCA1+Fe1x7tf0UJisua/BBOfZDQEDYagkP6+vej2to9IWf9E//V7eSM8mG34+M9E+Zi7qRVD9vRLYq9rOx10NvuWtKw3CLVgfWoSIeIMHLVigFKS2vMCZXgXCVevH3O8gaVrmf7Lxuowbhxf4HtsXETfsc/DimKRA/PBTC7l8zKEvzv/G3zHFN2w1xU9AwwgcSKG86sJEvSqjDkMqSSv0P8bq8fPQd/YxF+26xgoTv43FFhJ8IIPGystrxHDLCVoqFyVhFQTiVIK+lSKivsP7d6HxP/zW7Ry2g0jgABH6jqfb535x3tkJD35d7tzUm62v70hme1ykEOL4jyuf7+HYzOxLZe6qFJ8kvGZuM1Qm3Pmwne5tWD/+Holv5hfY+bNY3KL/pdaDQ6mMIr7Fj1IC2D4aZu1D4erU3BBpk8caMDN6PLDlYvQqrYzU/094zY89qsF9wBe7sVzoE6etH6/BB3b0s0iZro/9hGfudjxteVgxj+FJ2+dktOMq+asRcLeJ/sjqsLhk+l7G95idI9EmQYEyuBKWi4HMVDU1E3qx3OirRdevR+FMPJ/n2wORDUOrAYbt893BKjZtCBgrzcmK120VbBfM7RgQRfGQxnA5dRYr8jBp+Vexjv6UZEFxb/FDbhLw2n+JCX43jdHvH4n+RF0kp+hfh744LwcHu1H5hwNbyxvOMf1U9iS/HYDVF1tEDp5ZxhlKwlf69hHPX7v/EQ5qv5O/4/vOdjhpuT5bvS3EZRa7XGQzVvDM2jYcetCAOijKgHxqjkbKl8dNndOo3sCEDrrj+0jAb7Fv3BxAr+xnUhisGjWod5BBHETViG2Zfndx7v1lICrH5ffXrJ5Pr8RLRUg8olnnqfGjjWIhX7AwKlIPcaNNUdWv64JO0T9PxUbaPu1EuBQn11KrsnsQVQkQHqzHRF6SRk+X7jOdne2l7kz8X3P623xm+eH5fd/k7hp7wWe/ftSvhTv393TpsvjN3ftX3SyMptXAqFAhO5ITBfnSl/E8YmYq/9FWKIaTq6sgzSv3vvdOzCXX0Vx3t93/MG9dei84nLgkn/iAX7kw7Q8ZTO73by4u7+3tPkkNJwhp97XfNF98+P2exivExcElV2JNUxGl9PBhX02hWXJntZsqQeTe+tSKqYz30oyvN3NOa+uFNLT7y+X7t8IW7xXrSv0uvjN6b9tP73scCztvPB7x3LxySyj69V1qn46szHm1eThLdbc3rIeuv1VfRpPRfjD12L+VvvauU9V/pWHAaVK+jdwpp73fXerHxXL9K2mnhSlf3e+/KuL3XGez4i/hI71d05kzzTYheiNHr8lMisMAnPX6d5Pa+UdlDAw3rFuSDFOaFShXDuGujrun8lJ/376ooS0p5O/4+G37/XppJepP4LY3j76bfE+5/9kL1PFdda3FuvVsIa6jziHGNd9z8jOLqEuCznAAHCNx3imuGwf2r7xAWC3mUDZ5+v0WuELX6l6zyFGeps/2t74K91SrXJm/Ix0uWqv7Y5kXYIOvrqtev89UMHarX9ewvmYhNiaL0y37P3PX2XUSLXudkqtVoZ5cf4dcp94YPXGb/Tv03iuMr1956UrkRSYqXHbHezvcsxNCUJbvumS2EarvSd78xFfzWT791+0koy+DHEB963719y4SJF+ghf34/Hd6NLEoEDYAAAAAABCTAAAAABYeNAT2NxJ9QWCuAr+EPdnhpIVKtgmf/W4Q5cNY7WwRxmUCjYPAte6tBJwjjYYD2tJIeLCz/fGzclq4Ynz9Jbf9d9x+cgg68XhA9pLPkg1uL2bkFt9/CArj3eEc0DfmZoCZv+5HjJCHabp01KXqEZzWsow95t6hGMm7g5x48LLRnLe4z2zzwFHxhJEKi4j9alt3JFTqXieNoPeNCHDG352DW6J/RXjMyToTxk1u4iqT/V4RjAAnWgWLoQOjl1wavfEb5yWspZif9SDtjPv5lIY3r9XTyM5+M6H9EHnWnRFEGMBBM2Z2ihuSXUonrxIuU5xCB3hF5Nkhjz8dp75el7E/dXrcI8imsZz8ONZmJ9/gsjqF3n3RiI4x3Y1C+wnvwY1OfivOxw7y/F6N5KbS0vC+3jhjZ0Jb/+NuflN1+VD428AgbwrGnYR1+vlyqTCMGPCN7Hm4HuTO9iF1JYrGrkQDdfNT2+l9VIELWhbSvg75bfz1uMxHurjLMpiw/hxmoeJ5b47FzvP5PVtcZStspFzmJn0u8Zaf5hr8XG4xhs14/e30EN3RP13Cfewx8IIAgfo+2v9xkpBbhjNTQQI8OivLIOfZKdOl07pR3KSev420Yl4bnvWts6zm39+FxvLY4aq5zX0Fo/CMcpJNouFwTFwXF2jCEuDzi5Md/BBcMdPjZaLxxK6mBgPIQQlLEorEhUtXZmv1/s6JkDedCCqt41/QcvBVm+pBBN7E6mUTKwyF1IJEhrBBpPybYd/VnW5Fu/BBgDn/h/l5s8oGRDYmNoXDiLMOzF0L/h3744l/Yr9d6LrgplNY4GiPja249pLlk/5Mb2Zhd8eut4PVjpT5QW4uA71G9ey7KT9ZsbDyFtIdc6vryw48X9vKe3OZ13/43hJw7f/QT4yGCkQLUw0D74i6Vu76BsH+Nw8nkdSNFhfQ5yDWEDltapEJ0vo/4V8oYCXEXXbfXzpPusbbYzDCs4aRK+hcbqbyMrqe96a/QdH2NkJ+6z+LrKvrr1GYAsVWON7DYXbQ1uSDYPAV9B+T4n0g/Xg7eP4ETUn8fddn8qDV7KMacA5X2P7d3KR02r0ELuGCfVSthSYsHtrkuDMmb7MixmQQfYb5P+sZrbJTx+EkHtTt/yRbTnBZciKGRkHn4zMsDX9S7GWmJRiVX7y0ZnSmEmCHGAQ3uH588un9lxiDjxYr0/WxvpnQbQu8cB0dROO6maZjIL8bGJoddDcwlukQW165HBVukUOG4RghiQHh/ZaKxNvRa1ClTjl6p/f6G6PDBBLLs34X3QcPeIiC2BK4I+wBpXvxoMGNfofnneNqJrGGs0/sps7l4m2XoC7ELsqCNX8bWNY/GC8jgeFI+sSzzNgtztL7R5Ch2DTpdtggGzIRsMp7Bv7XPMaLP4nxtFF/VgopugPtTYWMY8GfEqE/Yi1HzuqG+DbhQWgaeE8QPAuGmO1YF//GcwTxkNBQRYNREbjBnEB8E/zpAo/hHPxN4O0uETrV/4Tp+8/DHHQ8lO894mG/dYJo4KdiHRQI64Dd6PfUx64d8xrHSI9iwWv2snC/2bBDLR16fyf5/k+ruQEF0iIDSogrh2XvAhTkOWs7hk736pPBhf2CMIMn9XjeO6+PCtRogzPYyWp0WJqBcG4G8nuYDU7lb9fxshNG9Gs87pHdE4YOIMQSa8DbPnAfo7fhF7U7Nl/LgPAiJ1FO8YJ12f/G2hz/KX2Pc1zDBVeHVUv+nxkbef9unUjzaPoM5CpTH4R8fATx4Ye2mqMDv/BVtNTFiIvu2E8EQrLRRMozik2L4Vkg2NOsikLa23i8piEXtNB+FLDLCqsEBQZoWU3IN7QmsekeGka/Bo6bYN+I3r0Lmjpjt/vdtNK89f7Xmw7DdtLwjLk9HZLv22T7/Gb3xmdTnwrLZIdq2382klVR1ye4uvG2hYRskk/9xnax9K62hAFkm9cMJaT8Hfw95SDPsM+NkfQGzIo4TxnoDmeWeVVpELoxg524RJTYSmM/ATEmUeWFITwLj+rAwK0sLD7DsF42mSnfAezJ+4G8AKVCCUGGTNRgfg1R/nANIfgP5rUcbo5QG5nq2g7kO69ew9L4RvGCjCd37KKV0fDbcX1aY2uUI5+7/07bwiKc/MksZAcUqcA/9YCdvp+5T8Vjo9qX7YHMxofAdqXao/sO5jQBs9rfpPq/P+yHqv8vBfDini0hIYQbjFPGkK/r9Cs/GcE3xkbuIfFcgJzBa2emYSoGH096NFmvBX81SqXhLOcKBMjIeFq4z3zVPisNBw1U0G2iL8ZWD/Jo7oNe2pYSaWLBaHV4Cr58aSZu4O+v8b9iDIIETP4H/X0hwT1esHArBuC7YVp6eGC80wNOeXYkJgw/uui8byAy0WBN2Ycr70CDjH50hge7xJLCFM/yBavwNj/GdPEhqgwYr5iUaHkwtxp8fCNeU/eIxseHXPH3FyAuH11rT2Q38VSve5+F+K40mGzMOH5Utqek8IB+T+qxscT/9B58jACY+aGhgVxsVVr+hU+x+WWWk4YDxW75Nq14d9vAJ4AAShAH1r/QXjN/QcbDg122iAoBfjOwJnPDke4EqQpOr6JcIeP+EZT6c7+hEIK+wY8lS1xeMnT4LDkRIOQxeYo8Jvl0z9+DLr+NmeA9s3cFgFlwq4MCCPhbIL5/d02L0n9RRH7JY6cdfZL+M6BYYB8IR0d/KvzjBSMsL2SCA1PlvvUZDiF88BcdEsZBmUphHe8AApYNgkGFqnxvcsqQmn14FS4X2wZiTV3yhj+d5jOB1TGB61Y9/UwUsFsiggPbcQF8/PnH0G1/ogpOI5SAg13b18s6P9ryXIZg/BAyf6JQKIzGMFc6KnOG2ScIWfKokWHIsdTHrjfPMpiQs8S5JlGjfhfror+iofK/0LxkELZ6r+NQmdC5sYPwAB1wp9bY0JHxscLH7T+oyABgStqUpziEp3ipwYw0qf55eNprjguCtHVfAto86nA6b5ZeHW0xZYaRH4F2sECokTPip9etiT9LxnjZZLyGHeEx7rQhPQR0F+/2v1Cun42PW4IBwpf/D1QOC7T9bpS4v0oHz9FYSvUP4+gP/4Rx+lemQjcL3MQCZuNOBxv6N4k19O38KSML2kjJOn9Qk/yUhHvquc4234+MHek9ay4v9+hflYfvSTYQ5dyRa8+P4LvKoNAy467bCT71wlGwcWM1eY4di1whyiDGxUU8PAldn/HkPx+8SHi4o13+PKKpf47mrGhkYdUDwsMd/rcZTJIaslPEBjj9HzwY4v+PPnWtf4ytMlT+wsmws62VM5srgtfs/jPGyE/nz+++SV76Ef6sBA9sv1v/PwnonleZI1DNXLsdHggv3+OALF/dayW/prBdwrGz/70OqX/xFWL/cqYRzFh38kSulbox7V/ZBL/cbXu5s2hXfcuZMk0rhTgv0W6evofeKm4retZl+rVNVxm/3cuUuyNGheKFcSvkkRp86nVJfohNrEW+3Lf1DFChNfmhCGSXDESKy8kyF39aktCNP6uquFrpDr/b0xrefcuSO4Y3+fr18r7BTllp+MVExqmU1epO6e/wU7d9D77TTrz6eQtwyxj6J/CmEdLKf1WPX0VKY9f6fjudI+eF93whv93/hHAmfhlRauBOqNYLFYMs/7E7Fk/0LrlnpApq/m1ru9Oub+ldIwRgX3i8bXH7797Sl4mDqEDkW9/d33RapdRfk/d8dnzS3y9+yb63Wet5Pbk6GeHuh/eDyb2T8I5L4SM7d60L3LLfqAo018gQN/AAAAAAEJMAAAAAFh42BPEx2CMd2o6wFe3xfgmfXlCDuEhA/uikmgj1tSK2X7U8JQHtv8DNZVVYznGPbga9Olu7kLXBUYYbXJqRg8Pf9b1BHxdGUxIqz3AW/saSdlrVQjCfzIbeEXClQEm7Ns7zYytnf6HQxP8VrF8H/86HvvT0R+yyx9ws+2I1WaK28l3aCrIt/TREFOUfBBoGrp7GCu4TNPZfBK/d58xjJ3LHLGd4gefDuQqcLC69EMEL/hDly8YI29Oe4Ug/i42yLfLAb77i6EZa+Ugjfim/xd+DunWF02n8XKQRv3spB8sXlIJBhgZaWT7l7wzyYcdwg/3ahwxTHaonrkT5Ps/+oRnBAcqQZLC4S9OXOh/k2kjRTqh+c6akk9aC3HB4O+FsPJOC/sDhjicB3kmXBgMAzdB4u+alRP1Vx2Ozn7ZdhGwBS8AAyf+UoyVgyXLmMGBsHHKKSNjRYnxqOr829zOpBOa2UhqOGA3hjY7h1T73diideI0Jx0XA+/4zziC71tWJj6b+HlDr3EyaUIIbl7TV/xzyiAmxAy+H6/v3JmcQGF0Jz66EzK6exYnjJUnyJd7yhugihgPjaGtQzsfHEGNii14nKuQxqv8y6GbHKG0+y6NKC33p1PNEKawuraCfrHaUj3hChDiZIzRbF00n+Eu+fvltG48btubFVyebCSCs4e2N5f0fLFgOcO48/9X/m0Nx1M3WPeazC15Sx27YYP55pVZa/Y8L8VijKSHs/8pkHwNaJi6aHUaFcXmVtCjf40OX6+M3+udJsRznx/GSMzbZYD7c3jJo+o979P5PPL1HT5B7uWgLHA2yzIpaSf0+Lgmbn5a0KYCZXuw4cy/1wYZ28EnwJ9kNorvnLhX9gfUbzJn7vg4xDtHQoajzHSjBFsGeLp/3G8DtPr5hjpc301X2F5PunoZwkfaafWi2Kq3it4URl2BP+D4a0mdjYkLMi7cKTL6wSGhhAzSCQNLjK2ygd0mbltgbk62LjL6O7l5Bc3fXWCpCe7f0y8b3KyNd6Oz+ROKjt/bCb+x+X9jhfQawH6qg95S6F2B/jf6wkYvVOGA0cGfJhSSLEPA6yq+/sC143wxqmCSQvCrOESd0LEe62NTO/vDAY12Vi6J6pVY6GEaLAvtR93Hc5tvG9y3eBArXPmtsxA28VEJfj1eK8Ot1+gKip8KyK0WQbdi7Z3Gxlmku6ta/43yJPHH9jboh46EBvIfX2CQNg0F4/ub6syupmN3BP9ngC4VSVJQ8gvQ26iKkkpG4eplacP+NjVO67QwKJW6lrCRm+ZPHSia81RbstHV+w7OT9qrG7km3sXV3d/n5PjKgY9AXEK9RLhaQ9T4D7yY2IeFn/LxmHURx/rMJL6TxRbWQ79Csm450GH4UwjwelbUJnsSaCmNoKZ2pNb8bvCexTkzKEOsbJfBNCBL7bLfC+AzhgJghw9KH2s1/oCS6GR8U23+Oc742LjuP3xvHS5A3hqhYkZQ4ZaKpLsX9ANl4Rk4txMEft3EBcwQBVowLasfNa04rgUM4QxB8n8142CPc9xeQfWA6hJvvv3ED+Z+2A9gahWrgPcVxxuKDwrhLdbjWgN2kAq/15v6ddneX+zYLvxuj3bQc9PeWZXqC/AQ9wE2vzf2NQqs/P5VNeba4W83/wja87Bp2etYi87cYm+oDzeor6PmEN7+gPvVdxg6EVmBuRAyQEEX35rcblbASsJVVX3bKvO+yruSWBqRvgV8WEvKIf7zAMX6ocf/Z8hWbMLh+4wPzhD+oyLhabq7P3uMrB7CNuNf5hBSpYu1rZ/uVgADclXfvN8MBJ6gNtg8WeoKk/9kHUMOq3mNK13iRB/Gd3H+XumUxd0zfGr0ynUwL8VzmLRmdIfleJiyUJnBgSfh28+f08CqT6ITodj125uLsF4ENc+2OnOU9f66hLKSNRWPkD/Zfv64e34ZrmDmnWn2H7gwkQ8sJyVJn5yXJ/kpnr7X8EEww0RnoYjNqNCbNnClhep8o+upu90M8i7C/xkITJ+9YyyWMb7VHeuMIlhwE3eDYbqQZHbklqMzNHGrsSbCPXflqnYQzyY8dLAne0W7lCRYgygR/peOyQmgNvlL0/VR+274D0CywL2oznEH6oHJc2gM1OXZy2sT9Pqj2a6JswbTYy987n+M/OK5BH0PzgAB8ZzjGwI4INgaBzFhgKTbIXj24/wk14vbVj44blg0tMdyVPsaWE8Bc7V26spmdj1bUaxu8LXFX2HDiyetIZ7ZyCjXd76AfXwv3sLKRgqSyAZqiy8gDMN9vJt22b3fXgm6v1Iids3yxyeeG+XF3PRvJJk/LrFcuV6J6+pZ5RqFYQXxuxRBOPX4oOSz9wgCGJjSoK8yjVvXQ7hp3KofrBA2KHJ7uqQzw8Iu4EbQQDh1vlqDKOAmaavjTNN43cRLdiHZgLx98BfPcL+f5vVAOrQ23Uoic8d7wybrRrD1P5xdSw4cwP8wAk17wHwjPgSNqsWSX4TPB8gVH42Fm3kZgRDLuERNa/EmTAvZcM5wICrL8m3x32mDuHC+8W9cFGcu3CGvx3R9fbS0qj8dTp4GPwJm+dsg1TwElPcMCYe0Lt/EkqXl4z9YESy85JXgKQ2hWFid37pX+M37zLXe6+lfQL8ZC255If7Op8KR/4zVf5G1e4IA+Qu1DeZTjQR3iB8TFmOY5jQJX+wjiHITv/W++HdY779p5/TWh+mQ7xuTy+/iPHJOEjAd8obt698Z3BCigBXCzuCRy/g/YuMgSIOC8Z77Ab0RzGUd5+d0n9VYQ4wPh/QEQtWiuik+2vHTBiMiILmyBg99l6M7/vxml38lBDRekqmlh60I44DYPAolx0RuE+K/NhB8YAF+NtfuA3nMeqg/AazOStIAlhE2wwq6mH70evnURvQ7NbCAhSngPP8VavX79TQsfOKC1t+f3o7rjfhLTobMlLBeNmzAzxgHRqNPCouWpeRXCaGA4AVbMKLQ+t+5FmEEZPCo/RjhUeT/6GdwgIsNwgQ6zasedWgn0+O+9PY/mBw+gOU94ZZvvUIQl9vfnEyjSwMOHc36PBf4erT19CNX0vZL19F/ogsT4y1NF9zkHfJ7Vk0M6eDQOtchfTspYSsGPNUuNhrk/TvD9Nyf0GMCwdeAsqS3BlaNWv9C8s+/qTj+Yhc6T3MQz34zKGCWGnzRvApgFFyjBx8IE5Pv6GSqPvm8qHmYGOizCHdgfX4Lg2zXzpZsWs/KqurCNBtjqKtNnHZzMnLfKEhQ2SrUZGLLwwOE32YoKect3iIfht0Yzw2scnV5WMt+4/Tcvq5PgPN7easD0f4691m2iR4HlH5ADgm1S8b5AwOyi7gfXjK0Fv1AACYbPuj1XSy82B7Dqf4qhwNBAHyS8dHhs/lS9v8ZYM4twcJmv5ag0uETABaubvGzDl/wgr9AX62F8znxNvZee/OxT1l1G3ZIfO2rm7hZ7XQD5UmT/4UH7+vTNemV3hTXUF+MhtHpqPKY3ZEv+Uh7B//XwlMcN2fp1r4ngmeZz6+ZeI8nCHvKtG4TWaJ/9Ag48I42KlWnjTjROfrQttQ4wVS/25P/xlaT7EF4mjg/AdbzKSru3GCI1IAd7BBNQktzu3GzYyKpwJqiZnyA9Nz8oFATPuGruF7UVfohFW94Kfa/tp5bpf6Unul43IZDQ0FFt/rkB1tZvCzOknfbWDTVTO5NHAUI6szTpvy9SnmlKhdpbD1HV6R+NgJ3fmvLzXF3Bq/cK4wUuqfpRwXs2wzyX7f4e3Jc5kf7Dh1TQQZDYG2P6xi1h0gdvNO1lWC/5PK4edQWduI9Y+uf5AcCtBEOf5/qFJCnrYv9iF1yVito2Cq/HOXCh+GVmlh9ehWn1huT1XjKD0Q7OGC2Kv18ntfjKPsfvniRAEba39+NhtDGbRoA5FOBcnSfzkeQCykHr9F+MxcJu/mA1wwLh64hBSh1mY7/vuNrwqGC9zi6msrc3Rib+N8infGi8j7v1d+vo2P1GfHcMBzhAjc8qQdKGk9zIb59qCH3uS/4