[{"device_id":"884fe22ed5e549078c102f994e057021071c0a0975f7d4bade4f20f0c1fd0895","trial_type":"initialize-camera","trial_index":0,"time_elapsed":29171,"internal_node_id":"0.0-0.0"},{"rt":13512,"stimulus":"<p>Video is recording. Click done after a few seconds.</p>","response":0,"trial_type":"html-button-response","trial_index":1,"time_elapsed":42684,"internal_node_id":"0.0-1.0","record_video_data":"GkXfo6NChoEBQveBAULygQRC84EIQoKIbWF0cm9za2FCh4EEQoWBAhhTgGcB/////////xVJqWaZKtexgw9CQE2AhkNocm9tZVdBhkNocm9tZRZUrmutrqvXgQFzxYf6V0ofOxMNg4EBho9WX01QRUc0L0lTTy9BVkPgiLCCAoC6ggHgH0O2dQH/////////54EAo2TigQAAgAAAAAEJEAAAAAFnQsAelaAoD2hAAAD6AAA6mAPHCagAAAABaM48gAAAAAFluAQRxGKAAIH3pMXJm5NSakxTJifJm5OTEniNakxPk1JqTFyakxcmbkzcnJm5OTk5OTk5OTk5OTiPUnJycnJycnJtk5eTk1XJy6k5eV5eXk5dSal6y8nXL1ycnJycnJycnJycnJycnJycnJ1cvXJy8mq5eTl3Jy8nXLy8vWxE5eTrk5OTk5OTk5OTk5ORZFkWRZFkWRa3XW5OuTNycvLycupOTUvLy8vL3wjgn2Lzfzbo9vH4AnumQ0VayYXdLtRxIHCM8mc+hDAJPxP+30082+DtYzzf+Pik/i+8ZiPDiPBVU6CW0DsACD677t/+FEnh+Tk5OTk5OTk5OTk5OTk5OTq3XJyZu+XrrcvfLqXkxpSZ+Xl5dIvH4BLlR1Pf06mo/tt8IYAk/AqVzGmn+D6jMmjPql3tmALg5DAHe9gYCXCQHx84YUW6xdkwr8gzaN0Y/LMwB2p8GoIw8fxqZAYAtfSu2BikEt2EbmRXd+oBjr8Tl90GSjfOP1FY/f6aD/4dK+A52YFi8QFyndgYhC61OBdJs2Ih3VbPlfgR77K9lZiy3/jA0eMyR4MTgHd8xxKvBrCbLbd318yuDpwxgvQLqJemfFk/QrYWFUQRXrFPRx1DoIEV8Hj37QftcG/R1XbbGulfT2ljf1cHV6Illi1cBWypZu5NkqA7p9iRbT5khw06z2l8j7IN8r3rquIxWtxg6oGOpKdxA7/Wn7xRmXFKQPYg33W83vVXlOkFMvyT4tt6nhFVqr4voFRuRRCshFMQ6ZNvn2Gp1MwJBo7T/5/ZCcnJycnJycnJycnJydbl5eXk5eXbebl5OJ3qTN28vJy7l3LuEcAI578iAH6/gmo+eD+vHncdXKa4QH/CUpG0WWUVu510vqMBiBERXN/Axvs2mAaC4dBHCzcqVb7AXY5Qhg8PAHdLx9Ew1UzEV/DN/jtwciInuXH6gMjh9CRbP2UwwJTPjey/IkWzBWK2GPh8nY8dP6kVBvMSv6qZqeD45c6TQh1yCuoSh+/sPPY6uPHH6aa04SwI8J00tvJ07z9t/6EcBH1xQH87Tpp2furduz7bYRwDOlWFsKX0+q76js8mTtZq9uXRQcabOEVAA1wXmh6zFpdWG+pT9KeB1vIQG5io1KZDuuFPirmaGmk0NNEi6MRBaF7hCJs7acIyVRmIlZ6X+BnPk8nJycnJycnJycnJydSV3y8vLy8nLycjy8ry8vL//+7wr4AvGMTFzLih/LSbCKmv/G7/CsAftk7nBCOkY1hls3lc5J0zmrPdT+7b4yvPkVuR5gHVV8n7wPdBz3ExcfBvnLW2/XLFK/eJR1IUgMCHYDcvNCqf3lzvd/aGMAFJP2SG+K++n/bP3/gH/thUkAMAJIeCksXek8/uDv6z9/u7vEtC6EyQjZYp9r/f2279HkgDA8ZsFWW5+23W2/+GcAC/+DyTtzDiaZu7px0xbtpzd3m6Kj2+GMAB+RGBkepaHkjmy6TSnMWjD2/iww66hxuO3K9bTQ61fkq/bb0VE6qJgppWStz7RKwvVZLPyyrqRuYpH+ZxpRPQUTTF+az9W5nARhSoLca5YT5kvQ9YbT//8Kxnxuo0io8wZqUHF//+FauHsttWZCD//qowrD4ZQmXb85FlaUE5nhUXxBfj/prrYV4SqWJ+bfeTk5OTk5OTk5Ny7k5OXl5eXl4j1Syq5eTUu//9mbCngBojlghgTHB2TGoYCBV2SV3ycvx/hOACntyFmgLZPsoe/H5vI5/9Zp+FcAZxqqvJ7qn7/2hYkAElw1hEHeU9z+f22z8/f3+sUwD/2wqSAG+zYsvS3/6dNNMdyFXADsvyC4z6//yS4RR16Lgj6EoJ4BA8PsG2r26/f5bVRVVwAuVPMmzZjebObK7SmwMYAfQN3C5KhODLFd/GXo1sWFDsa0ZkvYeqPRkcVyoM4tY4rruNXgwOl3fjIV/b2wpgO5dw0Wqm/+q5umv66aU+4wzWaj/4VfUlSxzPNY4pYYcACMN00mlAA045p/kpQfr+suQlloCGQy+pt59Ya/+sxrUzNEXiulWmVlbCA366XLhl88J/on2E/JeWFnmpuwEtpLCcnJycnJycmJeXcvLy8vfLm75XNy8m6z8vL/gP7SxkgzqsBbiTb+Pc8AouTDxWK1Nnv4pNwjglWlsiN6d3PRHX8nLBH2gQcAUwkkKBQZVHu+/neKwqSAEZyH+hDCffVV3qqqOxhiVArh0vyqfSqhpRlAVQroJw8Afr4rmZ+KJsRVuQZa22+ctoaaGlEp3kzhkG5cZ/B2j0hz8KDVOoVbiy8ib61hLAQ33sJpwdjSKalJOMPOYLNDh/1sldsuMqOwJNDen0//oAf/2E8k2u1s2NRXJx4vH6NSQVP8JycnJycnJyZ+Tl5dInLuTl3JtkeXSWXC98nw8Q/7yl8jD1cX3R7yE2lqA1EunHv+6zsBDAQk6fdO5HqO5vs4x2Oc1GCou/dd9cziVR0riFguPKsGsyXCOF1B/9/LjSZE4LqUYwSmhe8rV2Kcx6lyruTJtyVUfDbqpYl8NkJYCANvzXu7QiPbFVj3LkzlgXqTBVUu+oQcCH+Xubfz01/LqsOqH//29qh28fpi7pmqRTHB2tMvimbL0ycnJycnJydbk5e+TLpNIu2Xl6cuE5dJcm5f9sbQ+Jw9cKavHo3KpnHvX86RVk1lemS7QRwGvUU7s+f5PCxIEu85zf9/um/3CrghCirHv//ZLh4eWMMy4KpEETGhMBHAGPPp3a//00wrgD9shXO/9NPTFt4ScAGDd928/7/wf8v9+2Zn9rqRR2k6HqHAfopebpASRVjOFs0vaNRzgAZxVSFTf7/lXiFv6np81ix4A28xmkGgn9yh7hsraJw6y61WEEzn/0+3cEeTNThX7g+bTONJmcrkVpjV0ycnJycnJydYoy8vLy8m2Tl5OV2yZ+Xl73L9gj7cOE4aUzjW0rRKZt8v0YhVbQWYB4IAGttP7hWLTCih2HWkx6cEDA7gJU1n7YlhhZwAzLxt63+seNaTWpJuPedYBYb3dNDND39doQNRk25vEcZVSuqd2ANWSbfviFL0b8j/G/2vfrEOLpJM4rcuCS4P+eZtRJY/Gddz6SFfPXSq3pp+tVUVHnU1q6viffAxofUvOMoABD6LE/nbU6ZG+d7tP8KuAEABk/Q5wQr+bb22223c/u3beESQAyDztEr1/7+3UXfJyEzAKpZcLl2FBUQ4SCrl7er9UfsRlbfn39+q7/WP8my4Gz8yi1agd8pld1vyYBhc4uG7WAfTWjj/a6qh5x6WTrud7+48r9abT5YQ1lUy/ZERPZmWpmEqhBNzRpVmQP+5UFRuMyecCymTMkkJGT0yVF6cQ1eYGiaxUnFURlVKgZMFZhhuxiO5Sdc1Z+HSuy0zoMksW4x40uuuT3a3HSnavLIxCL2W+3FPa+sdwawLJZvxkxIUwBWkVoEW4j/+jIG2QsMNEj/huMq3PoDbQT7UamOaokbQg4AIT3TnM/493t2frFcP/+3WC2sTqO868PO8ZOTk5OTk5Oty8vLy96k1LuXSI7l0icu7y4vl8U0HxMNKZplT3ohTKWAHty5jJ+L6EifOaUvB25ZsSr1h3kftukcga3vTjWnEETsjpEFDhDZxL0Tk360mWs14K2Tia6xM9I/i3PZNWWyebF/Cf92+pXoTALM4W8AVK82RUA3fUZk7U55N8/LzdstH+lXTOX59C5IJPFotYlvr9tHDD8j4z+nh11VPpbyfzh1ZoxJk4ftt61qouDMYNS9XvI74nqASXp8H3br8/QdNrsSPPhxnyAeZnNEqhwb5jLnJ3njoybmBO1QBXgQ9n79hx6HP386eKkxnPWLz65QhsSf8lt4vp2yXQMOwUWK+s3NmfwH/DB9T1f8vesb0eUFFPnprKVgmkzsL8rObmQkBki+TRCICp2DTh0gEWAHWFnr3Duh8moe1h2lhM6cundWPjsOqorZLs1/m+bjVYOompG/ShItSR8oaLZHdyy3zXD+kpzMngNNdQC9DRJMyTroPb+zbppp1t1VLIFbjtI6WPk163al/dZkCqgn9P/bCmnOS6taShy4qz/Qwf8mqpMAQOiOTk5PRWhmZzZm6Wphl/9uB/hKSvsPh/hDaFy4FAfYAxeiHpjR82JZeqDKpMmOqtdYKOg+Q3l+VhKa1aaGzQQUea2W6lMbIsK22KPm8bLtS4yLf3g6FTH7FcfK6dpk5TuKHJqYnVA+TR2U43jPY4x4hthRwHNyhzZ3bj3+tfeEMAGDVaRb//MHFEX6P739OCGh1n/6e3tuXsU3r7bYakjIzP80WJpZOTk5OTk5OsQ4XbLycukTl3Jy8ry98u5eX55w/DvlPbfyD6H8O8mfvcGdMYRxIpP/3/zSniegWSvP915sQF18Q/CzgBBEZLC91ZSb9Zcy6rLL4AtfoZM8kHy7RWNB3wNG1yQQv9RnvhFYJT7LfRzAib7bnXRORidTJvl1Ra+WUQmoAxNQ47zm3jO63/b2hFRBiT+qXceTx//sp7M44IweCz6/4JbppLHSJyoLqsVYjlMf906+6+zWSHXT2nU5gZBtXbx3Q5xEtu2TVdaJyo7TGv17BopqBuS191ECdwtvcsCAz5yF1mxdkOaK137LLlxHa1vvCuAV8rI2gABABXX6PBLLXXv2+u+npp9obgHZgPTFdVN1FBlmlKYmDHhKHTn2drdqNmBMMej3I4GvFTjNdVW//T+p6XqXXQMlnkE9B6ivOCBVqfIywOymZi+yN3aZbtBmK7rk74eR0YNdkYSZK1Y908Pyr37j5Zsq9KCUvqOvhBwAlWv4Jf54Jc3SM9jWn29EUpaYFKdei5cZZBFwEJpus9//3+KMbMxB27lxqGVYF6iIEYzkKfT9egk9dCLhQTU2qLWp8HX5OTk5OTk5MuF5eTcu5c/Ly8nK8ukTl5Nx+l//b/+/+MgmvPJQimW/D7TGe+OyKf/r4Swnqvz/7L26CdFxKSMUdlK6N69NI4mxjA6ABAGc5ql2mGlxp/i11lL/T9KJmC1q98obHKm1tkvPLslnaPen9p/WT/gKtOphnGaX/oPj0J3Ol/CKhr4Q15gj3M4NzOa8fkEtPf0xqWFsAKur8hdu/jP6MGjSyOlX8A/Si+2MBl6/xwpgEAikL6fFqo0Gstjve/7u92hXAAZxVQ4eXCiHeK3QPPxPx3vHP2iIktIVMV9RnLPwCQHvzOz+vrxS8GfsrMZNAlxJkxcezx80zKNJGyl/f69TPTWVURrxxqle3405kAnCW5G5xmAa1H8YyYljm2qL+aifNG9xcHdI9lV/CldisbKEG2s4zXVS1WlGa1u5p5a7vxZlmG7ahtLF6ZCSZB368bTqO3ZBinT/i3ScRu3ueQ1RX5JYUJAEmfbGVYZystATvw2Om4fpB3WgO/+Nm1eSd6uVRphmcp48EFoPTypf19gOY4UhxuJxwfelIRnctkiomSpB1xDSawvuthjglhKGOO2ht2dnx52UBjsOJvs28FTj+Pc+vYbDaSaM0NWCsIOACK2nzSP/f56s3NUvjgI1KH3Fewf4fbvqTm6zs1WsqnJycnJycnJybl5eXl71Ly8vK6l5Muk3Luv+P5QxkEU32wYuf+fHaQOvQZcMqYOzM0VF0+8k2X8FRC8Qp78bPSz+/d+GXAA0qtGNM4A2/4Swhcbn54wig/yevrUQoGPYxq96FVDbItZ/rX61aOcAE+p8NdrWf3v1iPTLynMRwz/EEMFb5PP1LkWXAf5Vpn4NWEj8ndIGKhEVrVy7v3uDsxUJ1Nkru7FlCqgVBuBRksu3d97vd7unWLYRaUsGs8/JleAYtCcOmUZpmzNiKEWg2eWgJBPsanYAo9BSojXgyxRP+Kja9yUxVCuuYeWM+w2pGqT+/9FszWILAdjm369O5hsXv3IDiSWy0tNy2+YjJWbETkQrT0EBlPFpNYLH30DDdQPKfdvY/Pe1EQHw9f1v+PwOOlYf0X/jnAozLTJlByyw+h1r0X//7dXxtMX9U3tquTk5OTk5OTFZeTLhdS7l5eXUupXVd5dL1y74e3/icD3yYdIew7n+HbpKdVliFMBO/R1/67fp9oRcEX1VNr/+FSQA3yw4at/riGCaJaydRnlb8Mfu8I4AIoykzMidv/1k5PhfAD+utDAv6emnN0y7pV+mmFSQAQ89iaFe+4351vfz9wq87px9SoKqALtstp4AI4Ax/UgY6vGvRF41EYoXhGGH0NqRk05R+B/MnVHrVV40uG47OHD4dcJe2t86Et0lGV5kKuZo7AA/tEOoh2sPxv6+mTk38eD3/GzAzEDPyKuXERHFCDm5GciDxUllYTDkMb/FhUNHHNx2bwrh0YlAdgU5zxCewbGE5Slt+H9kTbla6k2mxRslmhPCrhHB8/DQjvcBGTw2DGZ1olnb7uh3nK14wZn750y4JizcKpT9ZwS0Expg15UwbgqhHAImrY789FiDoLvgsEz8IaZR3MmwWCoEsH5/jtDoP//HONJt7oq761k5OTk5OTk5NyZcLycvfLy5cLy8vLy8vL//5eL0ihBFSzkMFWSyNDF0vuOw0kh/6/H4BI/KfXLLWr5qOrq4QwlmSP9a/DGAE+ho8IFlrIafdvcQ9v97l9L++GCQAQQq/FkYX3pPE6Q0Sb7Ly+0cO2fuf7YZcANQ2z1Vl85I35+3TbbK9Y62yIRl+3CpIAMflIY6sP/xvTrENW1NldP/i3GMy4lCixxqlYZZBeEyQAKpBp85nHKn3UDtxx+Cy/j2RO8O3V+frNZrurVuP7ZgK1Mfv9M0LcO0tefLZRUwzIMaIdhL0dVeyXcPtd/ahJwAlkO+pUvYigA8xU3mtnWyRYZM6pMs/aB49qqxlQUlRBPqUY4MGbIzNIjkVdbtRikMUg2XEdg3Mm4yVWs2nSO8PA5ryfEo3TurU1CLgJMI94DB+3Y6dZ6oWjEZksYmQ/LFiJ9rHZI6LFMZRaaodEfBCLgpm6VmQRDQ/yOtJaGiuevj1BdwuEPwbhj/R12MEngDOvPGnoh4g3BFWG7ekdYHbjtQPYKQMI65UUmaZxf9HQfxG7xyhLZ5+vzMTMR2HVD9/+Tk5OTk5OTkxA4XVcuk9S8vLy8vL31lwvf/iHb4TwG4HSdY9F62agUaNpM7FUCGIWdf/4UwARHn1s096OwGE3Ha3xkhNj3n/Gt7hWo5wCVviA+fX/cRtSfHYFzpvj62X3uGHABP8sxFhbf9L1uMtl7fPWJ+7b2/mH+4UcAOb1wFT97bfv/6F8ARhYWlOcEvPfRv9u6acui2KXEkiZ/0xygDNJ8QDA0o91b/Pl79aFLHvxWXaaUJ4AzjUbAQn+/G39Jm9Im76k7P+FHAA0BXF6M2zAr4T6vUfc7QmcFNQq2hc43QW+N8pjn4RUfkNm2udhhlZg6FvoT3xoyCWxQ8L3XGw55rbjqTTWWQLskZ4uuFGm9489lCowbP69ARGo8U6V4R6glrxZ1mIZVsomTJMbhEdnfA8THph6Uy7f2eGPCqHERUUU4EUTvtm9uIIuW8/GOgRIj63mQMXMwW/87GNdDtgM1XUdjcy8vrAw8N39VlijqKjau38I4JFkHf0LOMsEgQmHmIx4bIiZAHIyP4uwMeGgY+tHEOGioEje5N8weG32Sd/4aLhajop8dg0tMf/v08nJycnJycm5dIvLqXrLhdScvLy7rSLy8vg3+z7vPAY6zzwMnxGHvXE+wgTOBL1KFzkDHhrsfUIKAEXWeO7+77BDamD/gsWH2nx8fhRQTswNdTAhn8cb9j//UmYFgqAQcIl/z73/woSAGIbYtier4v7hv65dNM/rdTUV94BLAB2JbWATh+fXl+M93J/Rt5e3xvHqACThtJGxS3//J2wduiFKNqpoyo7duOycIqAEeti4c4p/ubB3762Ws3qI9vH3LsWwabCZeE8AsK1KzcwUOTprslV0l/SHYy+fGASb+q1LWMfzTPGI1uW0vZrANjIhSELyVoXoGXu1p9sMHOsBjksFyjNHgWlLy3GBR14haUpqepCWgs5yYGNpinLKXv+lA0Ueea+kJbkYcuzrCyMwG1DZHqQS/VnZBeapKqINl6aw517ak7+nDBIAQfBuVBC/+7cW/NvppDcYeu+D5498zvqJfRID5d4A4BfEdUJPMJFyj17wRKgyTRlUlWpwnA8W5XeEWuaVnC6mk/cxE25vdumv6x5xGRn4+nMbna+fb72wMGgTjPjcEBcTb1g8VxPfSpo1Gcp6ooLypvp+cT8bVWvntjp3LfM/gkSdbPUM9flyv592F4gzn9NZv705g7yshqnDnvb6f/NFX2694h/hs+bUIuc8UIsjycnJycnJyYgcJqXl65dIvLqXl5eXl//+5DCvgIQWJHDAIWuw44SBSsL4xm1TXOTu8pOY+sEe8AEieEh00GbdSCEWCxfhxa9WX8d3u+oU4EkABxYO/x//qRRWTCgqEM4YD/X61HOA39Uf3++FXAQuxobNJF3Hf/v9HwzgBRL3JFgbLndVpVdHFmHH/BVh8rFv14YUAC76QOvA27//RfeXg38g+5HG63+tuKlXqTqsf228InUSEd7Ls3t4Jtui5lPBoPT22+HxHnBrobKbun+Li5FuQhGdeIm/C2zcTYPk2X3ee94Zb5ze7yoXQrgBU5lEEcvIN+/WI/1OPEecextYV7QoKI1JzVx4MwiVHdhn9SjIKHrqfT+NLN89gzxaMhpqrzz08T7meVfphD1NF83Wa9/DGAIz2wJbjTv82C2+WyuuFmpxgX3CoiQ4ZQ40yMR9fwpgEsvQz8fXvf5fvFHkgAdaaa80RiN3Lwf91G93MadqzT4RJADIdGnm7uW7Nt7YrRn+PdHSN8VUDV1AzN6rncXP8CJJlF6vgTbHtY5nrb/rrno4TTH/n4YaE8QsFwJvBo+QGNmllb18c4Ze/8SnTDf5OTk5OTky4Xl5eXk5eXLpdVybZf//IieM8BCA1mLlwCQQ6QxzEAspM0pHNnIH7kRf+IBUDGmXZG4/7/3f1JhhiRcuPaEYr6EFBjY97/8M4DTPPPvf76b/cKOAGdtzYRfN/3v/yXARn7f/8FXAGHSNhn3pv1vp/p+hVQbfiVXv/ppp/pVARdnF/gZJABnltGgJjX/PL0yeWeZOT3r7/6hQkBL5ubv9P/E0HfSqMwNSTECkzHE/A+vTFokbtPd5VLTB7Us0AJKW/02b/hUkAJKIhyFR9PausP1ndEKz8JZ3IVcAYBm2NhG+1fb23bFa/UIKAMnqId3VR4f4mb6/hBQEM3omGukaeX/r8I4AUeIb5j1vlkMRO3TPBKYDMmtZZW5J6nizAqoBDW8fha1+oSrq9UUfKR3k/NEy4Y60rJ6vsEdEZX+M2L5mfCiQSaR92epLcjVQXjX7orSKgdHDesOpvr65OTk5OTEOCdWl6y4Xl1LyvLy7lX//izQQ3AIbMQjbPdYSJvEv8sN8NRAQnq9fb+8N61Lj6vTJpEV08dgmcrL/987wy4C4a/+fv94rlm9fE4XAApj0IKAGdOF/f29c3965u+3CCgJ3m61/39tvyuAGZvhQ8wRwAZfpuQJ58nWeTr4ZJAKXseSlZP797+7n+C8Gv9SfJhc1BbACesCvhB3H+dNaHQFYD/L00pHW4f2HK65sonYVf+FsAYGGssEa9Mp4d7zwvd9auvhJwBVi8LAXWV/Wqr3Xgu6sE8AMV+l767v+/3d+hTABmePZxJ/rzz/jmFvWtY20uShjABft0GEnjbN88zZ5ZBw6DtEsfqnEDBMVi63/6UmjooIiUrYF3Gji9IStzttZcP4qG2blsdPpv9Ex2C2GdZcILpgBrr3lVWo95KGmWSxG7S6S0ivLy8vK8vfL/sZPZv14A0TyE4IBVpGL48F5xmuqHgQ3+/UmkTkyIFydPCOAj5eB5vPT0Xyw+eFIgPo1f1c/AHk4Ok6waI7CbvttzpUOcAZNrOv23+9324RwAQ7y6hx3q9zct+2zm4SwA0U5h8EZXb22wo9k49/0KYCcxmpu/9b9oZwAbpiqcozhft5P5PCnuTiP0H2LoFX35OFMQAhgIx3//xQgHEIqBCMNEHx//u0EMAMy4/vP5ys7jMxWfJXUtdOz9cLYBmJsFLBatspe5uW66eIHyKNav/HYTIpabUdfq6v5nCS/HQrgDHXmOM9ff/qaWFXACA3ZQ3N/3Nb393f6EMAIXrMcf/93e54M9Pit2ZP4VwBz6bB6uIe97EsFPYSsrL+GaheX5LpSmKU0+7Evse639/XyuKG8GWyLghMOqCOADuyljG41uvfpp9UydWcmIHCbZeV5MpBXJyvLuX/tb2sUKeAqkBBReJ7wTGNdV/4e32HppYUr5l5dy5elPydcfgDK1dD/u/woON/4UUChmh6dk561eiiH8vRPuRcM4AZTfE770/Tt9emmcASUtby+IcCHMSKmhTBdqJi//+0IOAA2jzUiGfoy3+vxHqTBQBkkAHIaGXYclmfmz6gLef38/f39k39/f3/4uQAvp3cmXhLACJ9M9I3+68sDUy/PQbQc13lUMpCwk4CZeSo7/9a3iXCoNOjnAj5pFX//cJEgG8wUiyf31t9fUJOAQvTw1be/+7ivUIYAZ26UN/Uzr+tfhHAB/6hPGQU8WuacvVay/CigC+ZtQyOziv9elHJ6ODZ9nPnEPxXFd4YcAEAGI1Q5zUZoxvi0/flZ9t4LT98k/XvLhBHWFwIUiA44ThJad6TcuXC8u5XbLy8ry8v2abNY2EPC+EXZVNwBj96uxeiYmqW+TcvLycmrz4PUBM9OvOp//9BU1PrpBUO09vgSVtX/kCYkwZv/ScZvTl+GXAA3qK/QBFAF7/F8vL/NVvIcuH/TT0xcwNf+XwhgNivenT/f4ZwAtkmGpDCPv4e8nUaBbi3Tk5J0u3B1QKJ36xjQRl6ePcAYxSzGwnvz43gb77OnyuoyLgRd7OCDgnabq+tf6iXAbnnnQrgEY0Zlc77z/9ubwqoAg+sJuHx//T95Qg4CjGmbP+/4SwIfPPf7/+hDAGYEnIdEon5e8f+FcApeHSWvBxbN3bzcseGRSC+5eqdXIboP0dEo7g6IFP1qVLXe+rB1LXrpkvXuXHaCcIrOdEuBdarGkxLycukXl5XcvK8v/29rYUwR77QGr5AhZWN9QwEBjqInhBzBpEAAIAYbajTRB7+f/8m5Nybk5OVTwJjOZO8P1bjQIVBc8E1zFsCjRlUtXsZUhUYbJ59LZz7ppHYnVoNqz9hWt4lgEMAZyfilE2F+/vTTrEeFiQANElEeKEBzdJsiOYLf1GC3Yr+gCA+neFMCPcB/qB9HT5qjnXvqFMOcD17//3lcqguAm/ftBHBjpn6/9Qg4GbN5//3CTgDMojMFBPvO7rJ/qq1ChIBBjTZ7qd1rvdaqehDAI760S31r9cIOANH/LXv/dfCCgRGhzp//3COABz5xAneRDvl1iGhIaBVRDCk3G8B3tOEcfhVQAns/SJDjMAf+03fGtG+k3zF248MqthSww4AGHy07C2/7/SPs5/5P17xOfGlwLuKsWFFS7ZOTSLy8ry8uu1oEEPSy+AOtEEFSxA5X3srpETkldUuJcL0pe1tZFk7W1RlUuFUKKhnAGPPKB3a7/eWCaa4xy17y8MkgAno8jnBG8b8KeX6Yv9GXfrUKYR74DT+P/2ZqeSdBBwEGzjX0NT3/+TKQVoZHCZkiqGigVQCJozQ3gkoAzDCuESy91+tb3JQioAYfm0SXdr3VSeZ5zQ+PUAjZUjU3//UK4BFSK7nP/J//oQwBhujMLr339Pd2YUUAJ+OskPcq/Rzvn9f1CTgAra/8ghzb8O6Pg/vhLFEug/TJCkdpOoVJAD+6RzKQwzmKb4CB6rK0x7meM6iWEzpVBMsVUlbJuTly4XUvLuV5df/+TwQ47gAxyQ8WBqOxWU2I39i8xjdIkCPfYEJX9R+/dcnLy7vk5OTvk5OPUAV+lz89SYdv/wgoBBqe5tjb/P/rhFRs/0X/8u0VzcmeTxlSYdU2FXARfox53/vVVNRzgIHj6eLX/9QlgLcmlla/Wv9CKgGY+AvWX6rvrwpga1c//X3aFHAI3M2F95d3Z1v/qEMEJ/fn3/8JqAIZOIOvFTWtxdl+3ffFDKgES8E760E5/rGuLeW1ZmmXlo57A/zxUE/CvQE0O699OFlCCmAMLSMvr3/9v6TEDhdVuXl76xtSvyLd7OyF6w30hoycCr4/uTJjMaOd31I4xmTdcudj//tgm3+AJrkOtsTdZmpVJqXk64RwAIev+r7/+N9fCxE5sgMpuwn8BZRlaYBhzklhvXMTEZ1rzMw5J28Gd4q+ozG4ha8NT3JL4Qzt6//rt0i4mwTPy6CCRIAotULu5WvxHsN3JbfeFMCR4vWf/Vlz0JOCfZuZRUXeiovlCOAMu+VW39fXhRw0O8/f/+lJAJ9+g/ZaIoIc43BDAIG6jnf5f74WcAI4zCaZSn9crIrCaxSLcXRKSAlgFaAsdJl+vDGADlSMeRQmrwlhEP+3lWLZ7DwQ8r36dYKNBdoEALwAAAAABCTAAAAABYeAgZwEZDwT4oXxy9c+COKH85MniSCVMRCyvNnT9jsoIBuyeuaG6NEV0Y93FBIzDyIt/bRChGltcdMiJP+588Elfi3tRnzL8nlOyCiFMM35qyaOtH5yXrV55Zb9XhnRsZPHblrnU6bSlpQxkqyxVKXUL5omfEbhfUXSm3C/E8q8q8aTGSvVXnXQrx8er5q+gYT4YvyqOv7w3xMPcmMHuk82r8upU/BA8hpdSroXd3fv16hrFTVkvWy5w3DOCPhHxluHh5/Ib799YZUveolXuOjQ23pXVahjNGqlGSBbYNA/Dk+ytBy6GymiBwgEYazRJP2tZCe/qM+OD1xsbOvFg86t7Cflw1quL340Gm1BsviJL2ut15PrSbCcohVkMogP3DakwhxpBtDAZ1fTltSNf1T8JRsEXfH325G9QtWdGNy+alp+E5SchYTvBRSyforfDWpdQScvuaRz0nzet9K6UBPNE1eCnl1eoo0GIgQBPAAAAAAEJMAAAAAFh4EBnARqDEYfWLwS5QmXueD/9ECPtX45nUkzsgyHmiJivaxmaSxNflJf92Yfy3p6WvghJ5OQoQi5177/ILmvHAAU8/NSggqVxlv8nlKZnNMELvzEufPTmpBHxv2/2b4uUgvu/4u/ISGWjq8ElEh6t4Pp9Q9TqsRrXw3qMJ85FRMEySXt+612u8P8Tx8ZfG0lPZPy68n6XJk/q3BhjRliwm7f2v9gvh5U3EKrv1Jhu4rpw/JzW1fMt+56/sHqifV3hy5KFzL7T4Tn42oXRg+/qCfQKPT41EP7GV8pd/j9PcTf54lGuoI72/GbHw2i2/BJ+y/QR5eTDnFeNCCUSAGfpRKrCNljNicM2+V9Ivyf0iWbGBn0fl4YtdTy3YIrQnGDdymP2gh3nYl7w10s9euojLu+t9CI2X/4wHQZjOtsTS3tPzCsYLTYIOJ6dRl79q0SSPyFrKsqte4ILUupif91BFqBU0XWpdQIFIk6Qb/wZVhPvDqXg4NNa+EqjQTKBAG8AAAAAAQkwAAAAAWHgYGcBGUNK++YovZtOUxuhVTcuJAkiBPKbtBN9O5aVyf/Ym+N5hlcjz66ETsznJqQ5SDqPpv3fnykCKnuUvakKEbPMzy5DCA6/iJaNqwhKzJn5m1BAl9LtmMfJq2RV8Xvu+7w2T4QxHVoilv5bk0B0gxuCjLGtnxO33yahd3wjqGk/FcZrR6fGmjHEG09Duldv5ktDvGZ0dCl+2Lf4qqMsscHEwx7d8P6ViJW/Z4azzXm2M4cuMUCAxpeC3hk4SaQp/pQ3iZLxL71XDWeS8ifCfVLnIVr2K77nhrkhiH4fhvPBRlu8Twnx1M+XYc3GO8uVJt9wxeIvLwhn75I7vf3Kl4T5smYTuSNNHuCm3CewlLD7xV5rJAzJq4FDcE6KS45dwlCjQzKBAI8AAAAAAQkwAAAAAWHggFcBZ5eYoQK/Xy5yft9BDj1f54VHJX4y2NDQywxxo1lNEwcGSP+IjJdbMGMq/xGuq+vUXSS0twQUfqL3Y23v3H7XanSGXMHAtv8TG3xVykaIPuf4/3kt5PIr237h6/OQzmpyeXjSJBHTRjLZG2/rWXy0+l3+M3vdry5QbXxeOZF3lZSOK1J6wxupNea/SGSX+3u/XlKEPd/lY7ZenZPzl0xGYY4bVZseGNmhNt4+kQ8u+vz0usOZa4J6GTc1I0aNopo2Mz4vlxta80fXe9Qvlrxewjvuww+n/IechkXEQvnp2Q1SrlhCa9cd5Oy2nZYHFvlqxH37pW/W6w1xMappaZz1/hC3+2eA7GqnmH0+8n3p/J/fQmSv73IuTyFd7yeT2/bHcM2byiW+XvUbG4R5xAxsQ9cLgjh1/mbX+y3D36QSb1fvG7q+VR673k4d3WvftWVURd7j7R7rjsMNtGbn1fXXLjlMvZJfwvnvfofhtSX43OeHV9H1kZCUJ8JOH/Pr6XvXwhbGRcv2/cwYD2EfUfF5uPzJTZg3M/jO1w7cguHpv+18uyDWe+T7w++GM9793uRd074bXybvelqtjN/XmQd/W7aHXmUx02/T9rYzGSelvnDHcY2CJ3CGnhj9gsYMpstwy8Ia5sO+5Uq0T9PxE+d3/Gbu7Vdr7/6H6d5E/KqIq8I0B4Bd7kHx4d6WRtm3VULb7DR39Pjxd4a3WxXQQYio5bkeK3rSCFUJDg08qW8sfZePjhj7NnjHjPxOMQ46FNwIcETcJYV8ISQwpcsii2zLbpbQrzs1VaTlCXq93k+vsXRDZub1YoP619nr+y+LnJMt92/EYaRaT0a4X1cFS+3ID5+w0nD+HnHVqK1HVCshe8SiEfW//ivOol96k5eIrw40nZwps0NJIvjrLJRLqEPNl8/PV/t33CNHNl+EOK48mO6+pnV60TzwvuW1F7ieT3M8pDYZbj9z3mXcZSjtxd6ZxA4EJ6/XXL3UM+K3k/RItmuQsMq6juL83JnjJChLfX6XtZRc69w3TjEIPy7iSe9dicc1bx+m4GB6fcP2EvbvuKNF0YEArwAAAAABCTAAAAABYeCgRwEZlFvjOXVukwhP/w+0ajPW+bBGshQm99m9UxkzXod/5aeGV/QEegM6sy14zJAY3xw4DBb8x4wNVztDp4u7SpcfH7prH1nb4jhcMZj3Cvf7H2SfLjnHml7Pk+ylrH7uGnB96b9Tdy5rD777WT/fH++8JHvuUm5QbIsqEUhkqh+4Z1EvZag3d20/e9RRa4R9J+Wn2iXDzcsz5aUBRuLw7/6poB+6W/IxnL/MLNwLMqy1spOu8ntqMlk964T4vD2WZmadthiLjq+eUPZbVpi6xpWtEPs5BvZEu8mGOK8bHaYVxsTHq49GfhTHjZ/vdfEO/4qshorHTvISRbwgK4jdJOUfe7yme5VWJ/bVxuCmHLeeb+USf1DtOIiNL/QT7cl7WXDW5sfyO91wju+HZC1g72pP91hvZaxrGieUl+C7dSSt/aXonpbiovzVtA12j0huuvw+hgu+v6C+Xu64iv3P0T6q2XuNl71I7T5BxbS2r7EllOWkl/p32CrGyR7HX7sgYPt8IctI7hDVxv50EOk9JC7oJ5VEig6KaWuwR51NvwpcFevG8u9Xngx8d0hprjA4nD/5zHbajPBLsf/v375icJu8cd+CzrDM+kuDvMSgles98n6p4+nZksw/+/xmN+SdJtJdZebto+h4e/+NkAuZkZXfTOIHdsMxDuuv1wlQx+Uh22nvjszHnX80QvxGE/BuJ1IBm9fxJsJmBynppOK9aoS1JY6P1a84e9j/SeXqOw676H8J3grX/OxW38KZcBVwDHt3fhmJXy5kbv8I+ne8H/vdY32lCDYoS6JuPCU5iX1/kxhD4b4rjC7P2vFY+I9UJgef2jks9UvSPXt/ZZC9rp6brXhu8aC/r/a8I46npLxCL64e/8ZdjmFgLH7uyOwcNxZptWefGceJpEaX9146kakP/cg94K+8kEzvBqJnv2CvnPO+EOPDPtQmjjb8jNj7KRQj0uEPmgggPv93DdPt0x/BJvt19ycdDAre1KdKYM+Tb8nr9jL946fPgm+vce8EEv7Lsb83z35g1n9frrj5y4yi53u3phxaIN9NcZqr2/X+vdcVxml4zeqjrf91CHop2OOCsmzhmTbdBH1xvTH5Bwm4vJGDrVHJ6UYUNRozY/jcR8IXt1wLi8HUI06s4T3636Vl1GQ3q3V7Oduz68Za22+11cSfX0EPGziw8bCCc+dpUMy53C6Gkd1lVyqIA/xuQPoELVSP8QewNprYzC8w7JU2uEK8YuYfn+e0/r9Lt4wTxlj7mQn09nwtJ18PxGCSP0XmZ9is34wMShhZdBGHbh4ke977rruwIB24pxUdF5NNe0yFFzPCwXjid0/ksn602be/YKLu7W1v2TaeMy/5xTINmSBC0A/6V4y5/d42QsyTvkOcn2vj+YAAhG4F3aXV6oJdeOTeNcI46ODyikyQbHt5H+O9GcCU8BL6j8PnMMTc6izQGFJhDtzqP38fveluorghC/hA4ibYtk/Me//2Q3qSt8IZw2TF6vH17vBfmjMQVrX2XvsJYdrLjkeEjdCtIFPR/cNWsix4duqWRD5xVJ2yw3BPkHt/gmg+EBxF/P2FYA0PrQQHsb4fCN/bKY+PVYW4jvGyJ8/Jq/9N+T3vGh6n2evr/E6dD4ymPCPLm1p3K9ytTEF1G67BBN8Ly/juAmwoFeN/amqEZ/35lKcubwlTiKzWa6ib3vwgK8VzeIqH+8GsIFmHKOZd3uPv6q0lK6TufXVKavsGF9V6+vzCo+Y4rwyks42HG0jepoivVW3s4++7/ftx9mE4dXBwwpvTvYql1PYaP69xQuRxNdGvmyf0ulG0hXlEat9qK0etv9aiK/Le7kfx1RPeX3jaLEdXXm6XaqkJ373FzTcsfiblMjNxRRpzxviaguvdvvLmcuWKmHm98qeFHQ6TLMhfh+o/iKmzfurE44zNBppr2VVyRwnk1ScnmhLVdctIEN79daijSLiBAM8AAAAAAQkwAAAAAWHgwJwEZMjNz0pXmMLjv0rUt1fbk/xyk6ML8daNa1dmdQRsZKvQvsx+U/NfQy+33KQV4P5HMQPtu3BOdLBW+hkpFsyYvYVaMGvGbdwZqvssG95BkXLJcta/QxL/JETasmosQ/HzkItqmWYgiz9g463tJ5jDPHSVtqzX9J7yE18PxE2/RaIMv955jUXFuj+EeyDdSacNrLaQw1uf46HU9bsk9NlD35h//ebhP2kV2w9RhbuXqexZZ6lmVlVC4El5Pyxt2CVLqDy/TZYzjO/GXz6u7BAr1kJ3rfIwU9vbX3b4jy0u70+PtHgXIilwInrYtJeXSk44HmpK9OgU/Tx82+ZCPmFNL3ZPSyEoIcsZEAwZFM61bvijC4YZYyaleD6pY6R9RImLgzMlDLfgPqlhTS18n8aKMKEC7DEchIwx1nfzGLuYYnJiNgsxaQoyFY7EO9kODSehUA4Dfujt4/5j9ROsuXLD6ne2MhE9yRNw8x14ybx8P2VvrIW/KyGCkZNlfnhjAiNMsyP1IjwRRaVvJym5U/f4jHCx9a9JKCPzKahewWDicvHeV+GWuami3FNEwjLmZ/XGany8TgOukyOJMQrQXcQe49QxBkJ+LFBlpjkweL0RsfcZx9RqOoe54fYJ+/LvXq2wciAIAQwODdXHd0q8qkPqZ8L0C4ThIFEUHaYUlRIPfeqdVXpnidcIbLqb8MLWv+EM6WeC567yxCWchPLu0IA4MCOOw9WlNznFFP8Y+mi9rIXYgF7BQJvCW0r4D/ky1aPX6PpqUFne5ObHKq/lshQkcI3aXTvgm/IhG5b/VJ4jhVBCEdrSCH3NnCAVxjMY+nWQQkagwxIp5qxsIWu7nFa5lOGZgSd6+dH1yfgk8OzzH+NlSFwubt+Qtz9hF1M6ozUuwkv9heH/cPYCslvtRF0jPda/sL2MrN4aVphBx+WG6ZsUaNiGG4lbkIMpi4z1gyqOZ/HSUafwaa9Hc7HJ/qQg6aveEzgn1uM1/Towf/9vY25kEqi4D3aZTdx2sQuoXIh1WmLDG89W7u6JJjw9LhJJMu5SoP52UHrJgaStwV9kyG2xOx8v6v0Oxgmcff0h/K9me8rD3ymbafFm47l1+nyeWLOlj/rwRfZP+MtH2H/Aq+XgIDQ6q4W1PPYGAmI09QcZOKfr/QXgg917UHf5r4CV6pp/AuXc9/tMWOnz6guhmErA62QnsItBAHfBcphaas3n+M8R8X+w0movla5ykQyn9W7C2rfH+FaJyeupoP+NxTcfHLGXTpFyM+SCh6HJLSjhj9n6Du3/GYBm3G4MhWfb2XEB9fbmUXfkMM72qPKvFRFDAas8WF34pYwmcPpM4+Xt6it0nM+38vsJXS960CG5A2/SxS+CfYjpVoIk0lR/obmrXtbks21W6sKQ/EE2c0OGUn97qHpei5L922TBdvxlBjdvCxalXJH7F41WUMPnXhcn6BiINHvy9k+rgWM0cXDjSDtI5QnDyJH4bgVWpZYmGIZexnn/3kuYgrt/6CO/j777W6QLvDEvpDMzvv0wx4B9fOw4xHg7EV7f+Xgdol8n++FNNJixmrgm8xGA3tMogt8nl6Km/x+fh/SkWymY8Y7x84eO6KuR5dILQ/dkGVVuupuY13MTeF1CMC8ENOVmD/79aH5OYQHJgdnq4ZsO9B0iV4l395d8q7GCu2nHM72PGSjiJVwZRxEa1MrhB33zsvzGvLwnbYVp5AmSBN61z/67wupIFL4jz6ub3JsIXysP0ib/XT9U8JgQgpliSHCEOgb80cl9vGIiCFQhSFk3yIfsBH/tuti4exi/CIwZhpr78hj8o0C+KIK6wqLn+3VMVWs3m8L4PG4FsyWo/UUsE0nCV/P3+9tKEcKcE3Xx1fVHQQ7877vuMuuH2m/Ta3R9RmG12mVBdDuOjQ70sZvun4Ujdhj8qgrDsX32leyHef4RwxRq0178fBDIbReNBWFIGeuO/Rurp6qsAUITfq776zP7MtsD2HlHRMWzDivlfRoRgNxnhs+x1a8/J9lo7sPQ7BT3GHUStgfB9zrfvSYM5MJuEznP+/4XxPTCOTw2u6f0CD0EoWUvyxYJ7GYRN110ZJgG6xAYqU8am6wJmI3kA/apUGpRjSPo0CXpkB70did+gus+e97tN4U0ccJuXtzfxmr+GT/RExtzJt/OXi83AfJJm/iHr+y+IlZnOFU7y9ZPVh7x9a4XeMH3c7zozkF50fZVR+ixqNvyfpNoOBHjQwkVmV1YXqbCxA3O67fnBJ6ew1B2JhKwqjpM34rddy+Z3fvqvn/iVdqjRiE8C5j/x6K/3pwtHLQgCWJQQW8rE4a6LkHk1QgRBAWZ7oCGg+7t9JWL2LvjI0J0P7ricInLsL8N0HUfj48dx93HjN+S/7nd5F9PW+YfbtUZ+i9NMaVDOtGmlt2/KQd9EFVrN41TCtioi3r/YR8aiXKZyM+8oJ8jEmyqHWpT+W0iWCDS5WBgs9a16+6JCcxI7GS7tpNwjQrlNMz/unKXduVR2DGPTmrkvHM+ev38WCH1nutXV4Ros6NOf4Svxlo1AqOXd5VflQJfJ73eW2H73vfe67/5PXjPFeI5lFyhIzNu4iYxPKwW1vCIw+lB+vWgU5YRk4euP1LLV3sFW/3z/3iHbmYrKCq/54vumx4s9df9dtejKI8Xpim3YX3uMG/HftL/bLtXll1Ul+2lQ/d1mytuM00SpMTDmsVEiuqQIsCVTnPP+Xwt21/ur9fyhC/f8vykPsH6/LCXb8yU2Q9evu9XEbvfb8o+/ft7eixkgktWKTjNhzq6/X3G79773vX6+YXPTebOmOwl1zMZXPIENrryxT1WKsxsufK+PXsWN3687mhTrm3uIzgt3eb/pPWeIoV0XhQ0krL4JHivkSugQcPSf41GoocIkvFQ05hE5/Unt/Nzd+4Y9Z58tf05SuqGZP/hqTFAm7fRH7s+ZeCjRziBAPAAAAAAAQkwAAAAAWHg4JwVn4Kz3BtN6hHlwxKHFrC/TVv9kJIE+YkYlOQa6IL8A/NdOwx7npKsXeKMWXLcggFXdMZd29ywbAflJJ53uilRteoz3e/KintxJGwYP0MlQ2ZcokYy14O0hzMJlUf8gTeweCxjLJ7bqkMhtBwTD2vWd9cJuxmoEO54cpcNR45z275R9f51GgdcpYcgf3/8ZBGjdVRHe/OsJ519PqnGdOIYn1hL5v9/r4+uHiGP09zzng4lOWBuXzyp/3yECnGi6BuLlWVS4j0c+8ODaRPc5BKt9EmveQW0EBDhDmC5o1dmZ5mLyHI8/idQhzY6mJXpjwjvtJFJaZrCJ6NQ0eMx/36gGMowIsaPjwCe6xFvAntRWsDrN/ye7RmkPgRNDHC432it9LScJ+7O7/atajKpB+z1ad++YustX0qjK9qGp9H4tND235PXEcKVpLfJs35m1puvJB3vfLEiW0i8Fcx/4GeDesJSCBZl3SStQyHmyCosnDc+6NRpWgtVZELomWM2nr+HGX9KXk9N4zktUhbo0fbKfk8hKVl1ybaBXFz4+FVkW/lWzxcXIRLqeWnz4Y0Kyr3T+t5ZZ+t+9U7uSWH5IXJ9etZRb7xn3W1659829/CV26z/NqF+XxwQyVM4T3y/qwsrVLCVV5cysaRhdXon18msc7xkLriL4Jm97/p9dS3r8KX25fywfjxf35WT+RXGSxn3a223gs58tT33V/FCPL94XX09r50v93W0ku03D8xx+c2/HXx9egvtcF/rY77roL/Q28NKY1phU2d3Dxg+335yUlr619B2ini34Yv+v4zz4Lsui01qw+nwoKlURlMfP4X1wn9/CGdciV6vjQmSJfVzXkgbK6VhJ6vahbgi+fP3jBvhuTYv67SwUe3NdPL4zhtFo75jfdm7EvRbQzX2Rvb4ZdL34TjOfnN3+xuOinJbzUr0VtP2wB/a+g5GdVkuIX2fk/7KUO/CZi5hcZ/CDuL/c7Xf61TqgVdbysTqPUWK4z/Fd40MR1Pt6tEFUybxy59xO5/dxxM/givaStTWZXZP3WXaVhDkEFyse10uT0NzfaxhtrFwAEJPGTb6gHg7H+sn8Uur94aJ/wpLVfZlkXb16/q3vUMxm76JfRdKVQl40KK58/CGb78JUm3IgILQ9+no171ckj1xe9PJ9r/va5ar6YqX3veF3MIdXCL6aqbs91+SrdTVGem9+/uyfcm4Qhqu1vJI8MD69S3vppavvhAE973veF8gnHUzg6HKpWxE3nDmo+R5nqQrE8u5/6962P7l19vOi5PfWx/nZ3HKF9XJ+R+Mh+/h8gii9BshBBHpxkAW9Ru3HQgYlrEXC4g4JEaLy6Z4z1dlY+MkOSRsSoBCEJoXSqdBAFyST4e/V64+/N5vN+F+JduIVMGumYdcmPFVrWq7hC3fJ67amV5MdzSifCMiT69vJ76WP8P7bKdcyqaBgSR/21D4zcnkXSY19aWR+uOhJZCZtDO8/AICYKei5CP5GTGYxwah3MfqOmuIdfuoUY0MZXDk+9eZrtKS4Sv6h27U+Km83t8L5xMvDi9MhpTNw2tp30hWbwxuS67loZ9hGCAdaCHRWFZGZuw0TjhwwTHANF/MT98Uf4zS++YN00vcZkXDTdigSLVJpLjTqburNu3lZmym0gjIhVs9bfB99fjbhg6xCTZacSfd5DXB9/uG60xrEuv68Fnj3aqGcJWSFsEfqfNL6nxd8IZGOSBCMWyfY5LKE8SkP4RQU1wkRmzv4WEVXEwb0ztZgxkGFHy638JVMICMSmOS/VS1e3eO3u8rGVl+m82fe/efbon6bfpv32EMbNduM1br64KsLkid1HgvmmHOV7v8KZbiAJTsK+VoP1dFh589F5fFe8/n4Vp9oQpY6pZ97fV7nFVoTb5GD9vVl93cXvv8Ph+NHXqWmL8M8obz/jadbq1dv4Q3vvT38FcsskW95t7wiwJMpBXl8/t3wTO2z8Qsp/vlx0+ILvcnkl3RN8IRwq60EN7ZfSd352w8i+QsOM7lYy/Fb3Xrll8dX8Z7773v9u96tyy7vyiRmK7vfv3kicUK+0Ecsnez3CjpvfEUaW3pyCa8VOUu+olcxZYUyxA/YsIQRCXGzBfgPtrMXWmZIYzJuzWcbrYqp8Oc/r+zrKezf9S11U+1SHrlJdepyxB69fWWLpilDKtOT7gZVv2per/uUTuXZL4LfWYrStyiutHcS9cde/W++2vU0SNk4qrztq/tdeapUvRVMdjpuLxdtZPhxTMFB76o8DfHuUqCHdNyS9+jRTpFM7jozLozxNMjtdgkGJpY5ZHZbl/xjhgjPWn/stYEqaQnrvJkCVde/KCLfroQvRNIUu/I3iR2Bn1hYPP/3H7ts3LMcvgS/rYh3ky6SbCksg0qwe3Se+Bjet1FWaeDejTyrz//00vJ7Rsv8T3ffy9C5pRvKsCjSROBAQ8AAAAAAQkwAAAAAWHhAXCYnbBKJ8VyQU4eFEeKJdCuxXBXS5CBHvnfRV5WNGFcdZe5iUPZhfcB+6W0WJd2nDeBAkFbkmQu++9J8I+Efe72GFcoB7dwpffCVvJcoAeuTyF2qGRozB2+SeJEn46MpOfJSFoH/TIQ60TFQKYjA6oMIsYYSiO/x1IGqYOqfH87EQO0y5+/JHX4GWa9lGaDbYMJffpGLH1TVUy1zd2wC9a8x7K0YIX+gyEa84QB2SFhXNgVLYLbYre9jg7Mbi/cpI1PlhHDg8E17BXbcBCTBgbmfEPNwy0uJ3AdYNUqAvLIfHB8n7hROIhVydS0hpNfqw7LZJ0kp72Mv79g3eaTXogvr7h5tA2YtYcGtC1n+h3IXnOq4NdQ+ugjvh53jEFXS9Hlg673dXhHdxmOWKu977i9x1//797o/J/eIG1u7j77wi4Xjyw5PKqbUf8d9txyYzKVi4J0LmIrycxBpQpgq0t/9I+n7NZuLi4fZZeQTn4ftq0eq86hUReK6J+nBgmKwSY+wysEfl2InadfIMX6Rvy3zw/f3FCXd77gn93f/tthPoeW97ZP8Zku2dks1IQju7wP6jIYRJH+IWH2V6LRKxXxG08NapP2QudIeA9MhEU8gnxXmh7P7W34BR4jDxsmcznyIO9ILNQvEVKxTP6cX3L7UtLtib979kEyqXNvOxu18TcPujmV/xwdyaY5XoBY6x9BUQK8VnyK+DHsPAI7E4Iil5yChzfyHJ6BQYaBv64e6/CW3796kr3nxOEYquEKJMyqQU7UaOTdgmqwcuUcOuhRnf1q2xnX45jv5yXUUtSlE3e9+ignYLwpnqC5/6vCqmNjOoRFPYrWK8V84JhOGsInwvZJIAXCqxjUFgupYpmDHJLk0bp3cKSsXLAZy++/kMWfGSpzw9w3pOtUZB3m5p8a0UKujAmH0++DfTDny0sK30EzmfqkwZhfTimjnNL/uFBVWYG/t/Cc2C0vWoGckV4+hHxO50nu/h33f8MUxfvye+SmbhCp8wI/imlkYLOWlsFlSxjUBh4NXRQbalgtdcxAnNAtzlcz5PTSUrCG/w3oUwRmkNyN2VxV3fv0wxfdUj6qIS/2tMFfukNeJoQC8lxxkPsKmm8MdZYPddhf8Ze+PZN7oY2mNWkQR6trysKcwzqVYJr00n33GJIKzhrqXs0+EM8N/aGhP7xoF2jNT4f2763L3reH1M1pwwsK83/onxMIrS0frd8NsZklmG8E87ub7GbFC77xo8NmOsp5qNR6KMlJ+9mjsOwpF/4uudQvpv/YR+43k/tp+M31QxPUJvkBO6/3dp/J6Xbh/uQXAF+hRN/H+ATfUj76sr3225CD/77+T51vBRC1ksZeS5RHapGr5lqdZFk8quqGYQjdNqFcVdeU19/dvcZbvjkQzHUQZ1H1Dkxdv5PK00SYZ9PkSXe7mH5PTVvG3cY0apXAhbVJP+NJKmsJGpyeW4dMQVp+x9DyfpI+FrMw1SFNk/gZ9Lr6OwOnhTUrCmVmhuYzlZgxkEy4hvDwnAw7FU8084eHO9UuMBorZH09+uPTnYrlFoNvwj3caQdzM+3Unk/k5eaOnzv37+I1UDs/vpAs/Fiu7yhq7+wzBrZfX9lvfsorw49Wpi1joZ1WW7+G+8eGZdFuegXLxmchnPdrY7vdjsceK3KK3Ztf/94ygtwq9M9+OUt5Ra7Y5/5axfXY/T2+EOLJatM9lEiCBSFZwUCdZi4ZOm94rm+cd1NLtDZShibKwLTKXVJf2FVz19+nuMmYwvsP7/v8XzUGWvlI1JRb2jPxmpkvyAgh5bzoFN+5xHxnAibW1Zs+OpQC7e0xOkc9NTWYgxqJjxnVIi5oJtd7lZd/seF3BMuYOxhJ+3+w9/jObA+Va+7ISoJ+o+Xfxm7vvvd3HaYVEXwIfN//tvCKzk+yQ3Vk6mZiHwmLSXpn/uatfKMrNye+3+l5BVLU9q+p0rckV73fqvbpQnd931oJb3z+uHr+MXQd1GvEC/x4cD/QvVWFLH38Ym5OwWII3Ozp/LVhUJ6rL07zB//2K01d7G6Fwub9v7YtOkeqVmlnKAVN+R2Z9o3e90p6rhG169VmyT8cNooFQKSEFdVQ0YmrNunB3kYeIrBBAl1z/0bM7fO6p5/jkJs74zqq96IDJeHwyh5CVRlXalzCqgraR/048if5ALCvhPBLouHoq/8LCrfEgVhOHJ6CHOaZjuymDi+TC1FXvd/T6r1VBT0oY5X+Y0/s02+/9ivHKjsOoPG6uT7BDUIjhkitRSowkohlFNUwmiZy20/RvqDc24hTbjpemKh7SwVHKNGJVaeOGjtwL0E73c9hz8nyurWPcetX6HhfOJUda5ezg99BTAsmNPpiteQQFUd3mmFOs2R4EJM5u5moQdIzJ3u+Wk3H9bVw7nsNv7J+k+JrKvsnKok9XfE9cNqy5ncfZRRf+bIJNuEzTE/ROyi/VRMQEO4EG9PfL8TGhhSjhAiSgSl5EB4i/K+Q1Cqk6lfA4Co7To49TL4g+XB7vCE+vg3iJx+pl3v8JRoFif+fMjb1ZMlZAhfbu7+Z/jOWrlY/jmd/Vb41nfj5e/eXN9eIhrTIMSj39HNEUpveE9Whm5VUJVK6G9WiJ8BK1db4WpjPfjuW8sP1H3sMU2r35r98n/nnr0+34y/vj3d2fbr9K/p3Oz+CHe+vQQ79n7rYzvj8ru73fpJwSbJyHGOC8F8JMeOIUI9w3wvKiKa2RfxMZmr+/M4M9Zcs291f1W6J6TusvEeWdXekuEqYp9uNGRZeUgmerJ/fFRpSa637LXrKI9e5Vr6H9aZ8f3+L999lPve4QQRDCZdRoy+CTE7m5Y4d8Ur05Ny6975FcEvF2gi8zL8zL/QgIhTHuVKqGjtPf3l6xulNu3VGU5Xbi7hDPw44dx+nvFcJ74eb38V+iS2lfla96i2qKEeeB+/dQfBE5190OxOJp22uEnd7uuCn3rW/qmI+9ile5Ynd3e3VtdSVikVdCdxVu73QQrE+IV9PhPvXdXCXd9+zghv8qpHr9l6R9P3+3AgatEU4VlKrxCZdXDw5ELasVuK5tK4Q4Rv773uAo0p+gQExAAAAAAEJMAAAAAFh4SPAywxEu934J+J79m+n16jPaf6IPCa/LS64SE8WK5BXS08n41NqL4hhdy05P/oZv81aypA/YUm0IMXzJ+5Vjo8TOmUSvMJHxyOY5zT1cbaDhndePpJmxNmvwgNSWdx7/cfdQVWEjPvlnRTRkzpUxlAxPYRZ4426totmds/UIcaZrckrHly6TF7hpCYPMQQSF2WSL3938Zs9+EIN7BR40BlPwX/KQJwgXE+tpdCTjWuiZQlmv3pZi77+MjY6PT8pI8GD93+EK0m8OMggIwMmNjJtRDah54dGaKJDAnSWE1yNLK9LxG13fuCKvcpHJLyQR93c14UxqN9vuk+XQ+03f2KhxW7Q4fxiOLWGbWT+GIsb1hIbKphIoETvvzsEfu69j+MCYx6nGk3jouqzDBfnd3dLTbxEPYzBJeqo2zbVhyqy4neteIz4++/gl0U+Hhc3XLp8QGcjPX2XCUHuXidvl2dd2KiGcal7H+84QB726qpNHr/ZCh3qbDE+xMvevXepF7PX+57a1ttG2yqEJ+fKvf2i6ihz2ixPXEx1MMZg8WOD9lPT343I2+fHP/lYfXdf5xPIz6kU6YKu/fxEguNsZf3uCzSy0jO06jYJ0cQZPNNsSwxacpUoYy+3D3un7dlfrJ6fwU3915MJBzr7BBjWguza1HkaneckV36/G3OCVu2o1yyWduz644PgVZMfh/W21tvIK794sTQ2oxU2JlZysxA+7ayDZ4bdvp+9h+i+MkUOYrlypiO0iWUmeO5c93a6s9a4z72wGehWUi+ZJ/v8IV2fTFF4xN4LPBfbZfV9y/9Se/Fx1k8lwzPlLjSgQTxnqvb87B2b14zNezkgbNLHkpq/H08Xj1NaZVMn/qNjRkl3RrJr2ZR1DPIYktLFR4057X68n7eiDsxy1kd6DNt+selWCDtiovF4n5GI0V4rxW4hpNCpJTszszr1HBYkZw/3yfESIrEgnkZ0N9bN5xYYx+g+Ji97r+9p8dHTaxjvX08u9+K3BnfOzu5PZ6zxGTPf6FZX9uVnxtj0NQeNn/phxI7i44MjVAe3jsw+SfoX2LYrZGd5ePJ9w1JR6/vU4rZBNDMZrtCNbvf9XnYixHitxZPSuEIRN1vY/PnuPSo2sxhC38b6IhCCFILl6PSIw8O6X3Lq5MuUT+Ee82GwYj/3VEFXfCXy+8nyokoggzPKB/TXeqX+FJHkYrfy21J53jiqEduN5vHtqcfe/G024fXc+lK13hpuQEZnD54xIBf3EZkZa4cXWv66yFGcKNCtjAaVirp+pkunnkuEBzGOyja7CG8b/01KpwdfrXk95P/QWGeTjaY1aY67V+NFbinGQ+Ep1/KxKyqfrbhdAo6fX3erZe7e/wWX3d5fvfuXk8+afFZe/d2q2QZVGQhNOVxhnBE8n5/Xn08vtUQdysplZ+bNnyeqnHMlMaWN3CnGisuCuJwyrJR6VdJyyvVakL1BR7y5fLXjM175tpn/Hd+1x93t3tbrXCNxVuZi8qQOKQzsf7hGub6VvxyMhpwAQb8Durq2nDr4sA7ej0p/efF2jMRJi1IYIohOtgLWGiQEu4MD6qmZK9PGSj1RWvp03vipvN4n6wkKvwQSbE4hUwqpmHXUHaDu+6ELxN7C3L2N/r0/ywVS8+Fhu7y3q58Z3Okcetu3vSGtGf43mdSxW770hzx6uppd7e33CkmbpaT7adeUi7HvDuMjS+UyNL58mYfIk40aZPVkyRnJgiYysPu/sQ+aElMjBZd3kFB1Yowd/xOD/GSJcVxx6ixDyHw1IMtd0xo0GrWWonSjWsbMVgslHBZ+uGnGF6P+7dDekc7//fq3hfAxuN13v8vu7xwqogVviQIwm3r0yCtpmyg57OVgUyZpaKTH6zfJGdIdKv4uakYOPv2f4S79+Vm3vdYILufLe5cf1/p0XfJGX3v7u/yQjKwxgaxStzZR2w5SDvKy2dyFqPcHX5VOWFONXTMufH4ZbuIfXjBLBKrPSKzY0UmFI3Vxlry/Ije6QL7T7/iNp+tyjTlpGxMoyyeNIFTDDgMY4rwrjH4nnQzh3x1Kg0V7aaGxqtBsaSGyPwSuHRsw3XCeAXPRs6tfrXngE4MfBrqFzG3iHMxQhECxgfnTKC0GDG/CbSl+W/5bbmQjPl99Sl80I3y5u72/of6bu77t2ThC/tzRhI7lpELHXcTTKsbSmlNRe+/v4Ulzf03ivTmZ74zOWXaxjV11MuhuX9P4zj2lC2a+P4WLV9/hTjxG0is/e1s1JiIRPiTON5owdcCD9drZ6TAGjMWIejgYAvqO3Gadrdz2M1fK3U+NvYteStZU2fOf2/mw+uvvvl+5/uF6n+7+NVdYuX2+nCQrdyCgj4cew48hFYIHAq90vj/sIiBMEtxvBIDoLvXox+g3q5v67M9DL+5qYjzS71NQRmon19/hDfdMVuZoM/r/GbGP3k5m5blesLvd73RPGgsiUcgrJ6ySuJme1lusQqayNap8ZlimWu3bb3irn8lsRbnPmPS35lNV1NbolPm5czZtiHNbhkJOc1bzfp6ReP4x4rsnkgqQKkEAqEd4QPtfCEbYAzBrn8b6ICaYj4rhw/f1cPcQrmtVZKuH5mXsqkd5o+zUu+nXf9IsgXn8/n8/r1/Rwn371yS08n/YJQJhLptdsKc8UrgfHs4S8x21PpfszIa84IwIiY+kB52Yrx/0b/GVEOOdSnOKb5u+4wU3IK/QreHHWSVNoca8yGMpBMGPhSrs533e+GHLWlsf5+V1u25GNzbMwturqcxUcVH1Xr/h3vev91/vtycL5WPn6/X2whJ+ViXy8cufk+TBsBmOUTeLcJleJxCwPm7ErGYysFP/amD5n/Okr70BjyffOsjXXlBbIy+CSy/mA5rbwvfDpZUrdfFv37PX+rsjx2jam5Xgq9+7u/V/aOc9XBVp0991fWgQg5UVrN4hYl6hXwv7LIKac85gjhZOAUVJU48Fr4kG57xiKLuRv0vVjqdgSHVCX5mSYupdbBLf0/vJ6LbdsnUZi8dmZmsUGsWRMXduRDidYL1k14mq9yRl2+/ystUIpjM3J3dE+KCYJjxwIa3JhFems4T36dD0x19u/um5BNjaiTfZq9rWIwNcSjheQaXCYtKSJwH3rrmGxVSRRaeJXBpsavqtcgKpV6ftnyzd3v6CG9797aYIxjc8sfv735LQ/XN2wHri9T7O/l34nvDSp8SOd6ujjtIA6wODhmw6N8ebCighYH3F5aoqsyfhNDzBDxzvu/JZi5fGaEXj/Kw/e/4+npuvuvhCVgrGWBv3dNxdzNwmvaAPn/j3y+mCzQG0vtR6wTaKa4Vv92d3utRlFJd9THV6jTdBurH1ZAR3d7udgmx/5fB/3H/burS8Zve9703HLrzmN43h7Y7LlYpboxscO4fOuTxIoID2JwU4ZdASX6p7FuXS+7tu/vUsx6Plw1QUe8exf+7hSNYdgqiaw5om6Ws6FJUBe+CiocTejph2M4OD52bsHtpRuCJ2ADdy7pDsrGm/z9z+pb9WJH3TxXc7I7QqxhzL2bQgIQt3P8dxcyvv84hewKNOOIEBUQAAAAABCTAAAAABYeFB9Dc3aV4JcUNzdsTifDB3sX7WO9pj5/gp0Of1Dc/bFK2HR16kEufmOpcC4nsZ6mFPIKy5FdCt0TwTzSUfXIM99o9jsS9GuvxL8uFmx6j6+/S7urMuXEOAjizrNx+ruPi+1ididmFMNwtLcNZIzzwJ3hUdC6UWHq3wx3zc8vLkJCeQd68BQcEufBxiuoo/wjvd0R0LraHP3eJIM0djZl4UHnWAavSLYOc8mHjmgPGsoEgUNdvsX4NQm+xvWKGDsqr8GZ7g4g5MW4gRSDgOmNxFMCqx4wRb8GrdqBjDlcPwOlEaZIaEywIYSkrgkCgj9n5h/pDunK4+/TLxF9MXXxxr3PBm5SLgP98UsO3cFBi+ou+nxTD9VeM1v7sYW8p/My3QMoFh8VHVfxysUmYi9379vm1dV4gC3rWohgbnNPwy7LYxqQeDctjEjED5tH7SkavL7gjpzVGR7Y5+nzLFc79TI744Jua8sOFqaADdyVK8YYowLd+NI+m/8/sI6hIbn9WL9Tic/bAsyxXc73H3c7Wyyxm7u/3C3Yev415tlzYSk8bJwyGBl1PnsO94Bx909hEx5NID1raNtXEEYx7sNBfNoWbB7YgG1fb3OK2RxETe8FmnAGTeIyp1Uzv3Dkne71ytyTG9XrfaGe9372mvwpzQ1nkiPm/B/R9+SM4vY/u7+M+ygtkpa/lRcxoaZzpn8JRLshewxkGl1i5YP+FnJkEZ92BZxJd9eEsCZjabqIEaqCE+gELBEDUXjvgDVUO5w+HVoHI8AXljuYFV+yfg9NngKD/vulsyzoToMAh0d1HNKnUuZKCZE3uZOnix7wuJkqqEB9DQTAPNkwMi1eOeGQLhXu8IhBz1/9XBF79ZPs7XWLXjLjeL6c8Hj/ukT7y1KIx8pjrpzWBqlcLbhsd3d04t3RfFnYnxiiyis2SldNShTwxyLWjWtEXvqO3rzkEYVluJsf/7fHWg/mWzY1glK8xTWFMAfpup7S/bpnMj8kZdzdfH1XF81z/AudKynlUFwIxINSR50rli6JqnxBAzqmP7iReIcaSHdDt6lweSG8iZqwbxmEx0gm6SgWBRunCzQz3W/XEA9J7GNGPXFbs0z+OPVtXN58ll9ju6Wte9kIiBSTfcfQ+9y7zMJh2wpXm3eg9okOXjdx0NuXoJe+OnflFUjKYRLuLb2b7MQLKv2wTX+O6Yqq4V3LIaS+PGjvUQI8V8QJGZUL0jkfVT0zN2/5wZDpKkNMF72emCUCfOPy/u7ufC4rwncTMi4xWVwpuaEllq7mvjHbt8K1cQJk9M7+3fLyZgtg61JkMGy9UOOKlOUx/rxQz1JAgg9xuf1EGhtw/xNyQGozIpGpvdykaEEXNK0aaRPbRIbMglGTn+72cy/Fb97vLLsZbK99VkaUQLEr32yQ70h/T8JPczci05MwUyfST6djOD3yZB+0mB6qenvGjMpDWKWQV4rSIk3EyZoiOQR4c9FhN8BoSoPFiDTNUuj+FeLcs7rjLq+lGJW7JyeM0PJ5QKJEQjKMih1p9DZ832OJKrfQ6XFlqQMZgXD6D735eGR7Sihn+t/iFiv3xYjLphL0K5DB//4XoFS2+sQsL0wX1u6FG8T/Y2NGiGsO/lZVoWVem97ff+EN06sY0mB1smYuY6IM33teEjy/EKavbhuxWn5QyQgYlJMxNYYtXOSgAEX1jFJSAAEs8Bvgz5+c3T/ZLYy7+u1LAMaHh1XrT/KoN11PIhF/e6J72Rkm0jjFGnkZIQ2tIcaCaS1bKSYHF/g7/vGca990GKKvFrtW+pcfUb5Ph1JksZTJFRD0QCMh+ZaAz9e9/2HivTFisSCmeaN2LfFJ2YjWPtja6uMvRNf+soxSGqZMO0GWtJ1er85jLohsiRc8zfEYTs91f9QpBf1Rmb747e+/hZg/9PeuohY3d6vKxX6KiFCHN2Oy5WKU3ilL3D7xWsTlyKxDiN9fRNMTEOWJ5vwLLEkBb6g8tpIBy4soye+DOYblvxLC+f5PmjQI4J0MClVQoOgZAtbmLsg6eDvkTkK1yvUDOzdMHr+rkq8dCF93xN+95RzPxa+WOU0Px1MH4a1ePvEwp+/8tBVUr45EhE+xsYszCqoqqigzQaQbuUwdwXOLYaCYEssc8HtqHJHNkKqqWqsrorX5+3MZ5miGlGD6qMlt9WVRfVbbFtneSJ7x7WzHalukJA0H6DWjn+Pl+mS7Z5Qj5sByqAW6p3GFm3UqwlnElWrqfZ4zCPM4FcywvW/dsLNdjhb6tqwZ73bc386sxaoO3LOluFJe0uhrXyUjP2TMemMpO1hbf8puXNRfzqieog7q1tw/LuMq/K1p3tdqpgoNUSPak+TkmzkimaIVvxtMy2DvqUZMUtw5nCbdOCz6/D7cEYKiswf7pWb0+8I8VwUOLNbd9l5jQFEWRGa8PFwwdYTZ2mEj+K2hVVMK2wq3aIbu1E8n0tKSHDlLXg/0bYM4IAdJHGdcA7b1kHFq93sYJ2/fZkAB/9EvLzeJvty48r5ic8ewVQVRnXgYO9SinLpMGFGPBP/pebgFfkJPl+nfiHhVpnvWvZd71MKHZPblmKPCPT6YNGMXVyc157RhTO7iGcTexXZ+Sj+RWNeW7+T7BoMjaBd37vFwYj9tIgJcBszd7/NWrcnv9P7fYqfQotXkB77rR9FPSy6SitQfDty2T8ZzVZDlp9LIgyK0p393rj65PV0nLEDL0yKOmTM7AzNZm5gs26Q1DLyuC4ByVTJQ/B7ktfAxPCEaCqpc8Dg/qUC8tReHlU4/QTVmQN2tD0R77heeHwhs83KPVsWPml9Ht9+frKsfH21bYx+gNIBkPfI2UTX/sTVXdkR8xKu5GV9GaMEBmYIe1qpHrFYXw0wfSu+x+5hJI5aEVlwpnR7IRFckHOjY/w/eZmIcKPTJVenL+Dr9uWJGZf54gq+W1jtgY2nta0rGRdO8hBmaMbOvNmw0yD+7nx21/UjO9mWxylvxj39DZIKPCp+nFTtDuV7QM/93Iwj5kOU+lSKkvKQFMdMt79e7v1UUZMcRofcyfbUG7Y6b234Q2fFHKtG9XlJ89igQowvqWULW01VDSDK+O/j44sHagz5oX1y+YmcCzBLMweFE0tYL6QExf0F6Z9i0+TKTipGdOgr2Jl9LvgsUNfyWOmt4aivx72QHIk1+uGCQCd6sNWHO/Ej8oOroxn4DvBZQ3xtDPV/TB8p0PPWh3p12NrFKtVnjjdt2V0jqKG4zt9t/yVpr9Fonp2BYIUaEb83Tl+T9sFUmTcGKTGqTGrTL+jpj+liR3aK8loTg8/BkdJSOkbhpicsgv22o/n1oojbxYfY2/nYm/yM7nGvm5Pls4gnZE4/vv3GVD/9lYQ73P0LTFXxz5iXe/j78veO0rTDrUzFnIlVYzBjrb/B76Wnec0xql+sbtf9MOVCf7GY6yw+NmN8RysmUdftZhmtjWwHF3U44Z/Pe47ewLwqf7+b5vN4ka5crgXcV6EeaHsH5aznwoK8d0AqTnK/q2I18ZFux95mO4cqbs5ME97u/9qjkVtt4JL42aUhywVZM4Gga0dKrt8c07kjPfTPuaLhn3wubRz1I+LvO+738FmrQOWL3jphP1CBWf2T+CyMQ0Ka5VJ3wkfxOf393Hgr/juLHjJxh7dnlswf/9vQ+d+9t4kU+KWh3tQ7LlTjM3rFfnE3FRSZGLSYXhx1QvHSYJlV638Zp0jML8/vmo1WySxmr1uVuO7NmajqOt19jLEgycG7s8a32fHUZiv6zDMZnj/Du5+8jMZlcws1tWtdJkUH/SO0FUhHDq2j7ja4eLa3KonR9J/z+wV6ppyM87x9OzDTgCY/427wQxT4xn0Vboxcem5KnLi+jpvULm8ThNwZ2VlZbfsvFCnjYsCYJg/9GXyIezuz8q9ufCMmQk+y+rj5xAYSFVJihCFnv+/ZBSQJve9YOby1Y5Y3vNulfvNlf0+VCLt778u9OQoQzY0uvUt1BEtp7WMkoz6dkGwnL3jrSKeNZx6aNFerVMJsPinqk5j+mfsv4UugxLGuODOOmaqHyoFd0zOMbWaSsbDLU6jLxR/CTtXeXIdXbTZZDRW8nrnOCkEZZqQ28qm8QPJn1Zk8hWELKQISiCLqghB/sghDYIag8T8wf9vsVvTc3u/C0j7jINtMSrp73+E/q3z55Fytha5PfaVh1k+fJod3ft96onfj/bxox1CrcPt7qsOyyXne3/xwzdvyF/f4dl8mQx7enr+u9lBTh13m1la1wvyjYY0MylamH3IaMuoa6m7HjsnUTRayyf3IJGD+cpG29tLZJnhyeQYNFERY+bhtdX8WBj8pSNn2nk9N0RkERwNBEjWd74VDo0s5j89sVE/N5vN4hwYcasULF+Vg5i1vSKBBBgIy4WDjQlwfx3tq93tUSE7m27jnvlhH3bt3J6/J7I/hHPW0mahtfkOaf2IKUgiIeJs1bod1cFW/FRyr15b1BNXplArHsj2wWtCKZuXxF5Ow5hu9n0rdsFXfn9/12wXdR+Kvy4fD8ICuooaEfLLhlyhCkiU4/drFthlmQSv7+/ZyXvSTZl7lWxBiy+tsQtVBTsc/793q8LR4WFeXIVTHxoxw4tbgXyQ9qJPWbvJu28SS/0xO2m27z81uEOWMroXLz0YV05ffJ6zZYviWNesu5DMvT61lN3ffpghy+ndVkWV0jb37lSL8TF++8XaNLCfNDwoYz3ee/WRo+CS+2xQnLxH5Rsm4uLD3QkT3TN/F+smNyhhT9+xktb+lyaftww01CWXLV72qVQiHlYGrWpW0kKn/fbPBbmTVxlteg4elFpPkFZeKaeO1m+PpjfeEoCjRUKBAW8AAAAAAQkwAAAAAWHhYfH2BwlGZu0LilnFEuIFPBAe4MpD60qr24ZHeokngp+MG6xZu+roZ09XvV5s9MdTNIdY0ZeCq2O/zPotwS1i/iJBP573k9U1SGVFyGvPg6Pg7172WyhD5qFp8V7XcMYFBPuCGvTUfl7EcZs9IMTy983Dmnu/gq40RRtCXznUxHv9JLWtktw2IakuL5cce3+kbF+bFX0IqO3cuapnx31Olfpnr9vk8Ic5Tz2/p/G3u+70ndK9ft6J5dk6uFUZf9HC9iamsY7IdeouYgrrfrvbLjvjwxQroZm9pxSyCutOOy/2OTNUQJ7qxy6s/euK4d3NSOT3S69VIK9EqtFpAj6QhY6EhXQrLpaf6nzNvCM8GpC+vffVlxThDN60VhoT4psuCa7mHm3blCwrvepHXtbcku2VyfGdZ83VVXvSTKEL371Wud2p7PX+4jCE4riCeIB/3Rb6ZZBNcTe9/wuEru/d+XpU3fSJgop2rw8j3kJ9SvqyEodzUXdKCa5L29+3WEq7l++i8sEF3fkvmkQkvT7eRC70TQ+m9SeyAv1369P63E1Xu3vy3d2vG8voh7w0b5PCVjjO+vr6SxnCiEIxeVH8/4QffHt/F3u/cJQ7iJBlWU6X9atD/dq93P+tIEVm/l3X71vIxnecSZ+/jue6sbXGdcqmdIn7/hSnkL/X5YnScaHjFuiK6D0Ijr1E2cL3tjdzu+Z/rZBF1b5UJ3ve8npbLKJzs97vfoXfxwTFqiT6a0wQeOXG+++mK669FVITe/u9Hr9Fjh3qhTxVII+/Lz30i+T2/Ij39P6fyfZRDkgt3vymLFVHY6v0nufH68EXd27erJFYrn59/sbcKNxvf98OOsorp9fZdNOgS73e3dk8NMX/Txfx8rHbm9axwp4u1tHSp97HG+oKLv45ry06ml+bG+TWiiYfRcKlUxNsfyh+vcFN+M2PffOE2eH1f4qsepu9Y0d6od6sVxHkJ+3cvUK7nyruijb6erS9slo3QyZupLrpGsvGbCzuP+K3zMfsVX1w5W+M05+73tc1N6yfvIui6EU9Kf30aqEeza1HjsV1YrxXIxIEbwm4BCMmdW7/+8/276lvYKLu732k47vtFSb+9xm2+/3J/sjrV4+K9vTTlo/yeXUrQQ7rQZpeWUeO9ROyysT/fhHfvd3fyK8vVhuE/Vpr1Ce7+6yAr7ysfpsdlD+fv8x0rDx1Tt69SydrZuvwFsOy4WXtdcsE1793erLvJC82fctF+rfwpv9uXH7nzlsvBXvNSfPe5sSte3SJ5ZUuP3uNxL8/Hd1pAu9UerISFX2tNJAlm5jXerxLEicI9+9/4u++7qvwxfq7u7++T2UwRkQwP5+2/xu576/r8P99+mf+v91wWQw08Vv33y+Cna7rf9vx99n5HJ772wpund8NPuOO3U/WshHrpHk/2fNDAUlHPqe81iV1VH1lKE4r/V7CO0vXfXHX7vvfbaY2brVjnZ2PZ45Ty/38P3vz+fuf6/rJaG37lg/f03x3/2RuC+aDWF7euv7lbGXvmYled/5/ZCNDp/9+9PiI+1CHKRz5iKxMIYQ0Lvf2lxXvfModkBPvffrxEnBDuX3Kq9XeX3TiR1vV4FCIxNUi7ljUVhz14jcbuM3VqxzlXaJvOKuE0zMSEa/czIrFfk/OKJx3P88n9Oojib3vy5T59f020j1+ucblxpCeHfI80PcTkw216MiRGT4k4ixVcKVog696f3feSCwIK0/BFHJfbvG7yf/YMJWL333LPf3Ce4kMgk7n7082KqNKU4EBkQAAAAABCTAAAAABYeGB8WJzcFQjghF2f2gqHb1iuRKDHPlGe/fpO9+xcb7Wb9PVogvrvNlmSUEgWwA5+jzKffWf6p/uMv8v+XL31CPjbZy8vVjMrZs3cZfcZGZGZ06ju+n19MZdIuN468lIPHd3d9EliozL28Kve9Lj4wyVNDccMeSWeUu3ahDu7WFpI+bXIo8VcIUfeRjLv7+/OQfCPaQ3N3dQxb1eV+0Il38U+mH9ne6V3cuL/T2umCb3v1vP0WaCrtPNSt35bMaxNcur4UFLKdwwyFvyECO793FG/lQ+1SNQ9+FmMIRvxg0ZJ/fv3d3eT/HjDz1/t7Yy710/fd/F13Lv9Hr7dPRY84Lr3rT9VsZ5abUsLvG6vTaQyTw0dDcy5+XMmeEpYKdSu9WEYupM1XyRcmVlJb6rUMbuYTxIi92tVy+Pxs2DlzsgjJEfheeU4d1csXe3NWvw36+92/YIeUxuhHBBMT8SDSWWq9wte93d16+uCKqrdMnfJ/pYjn9/VkJHDvUbxOaFZlGfKCO7v6Xj6V+OTH36IFO+993d3syfYKLXk8Eh4z/H+cIeOoXfk8SJy6XHxPW6lkDIJ97k/tVT1/WdndLOyel8gzdbu83quNTVPlWuUtcV1qnyfNFtR8YOy9iLUTMWZiJsdiLTtgs33d2ndBBPrm7kYQu/1aN5E0n8bd0vfMQVXrpf1PSrT/4yLlcJ9rbvSDYwRfHuq309B+MGTqW/bqNmQekco78pzVl7Ez6VC8NKSfZBEEYQ975vWF9iUOU3MxPxqihArnr6P6YLtNOnHtXGLttYzL246m5L9u99NYQ74rfeT/BPKL4J9u8/6UaSoIXf8KtykRaj3/uFL/uvu76+ErnMXt8/rw/qiu74nDr6f8FXfrjq0CmM9ja7lkl15GnhUrM/6eED5S/18P195l4bHHLBPWnfT73ce31Xv5x/utawrPOEj25W3ioaqZccjND3WE7u+tK6Oc9/f+hu74GxrGkB9euNa6/1G/n77vhRlffDr9k9tOq143vlU9OsIHbwuf3+tbKJ4S/Ut9/tq+kM333W+45STUG0NzcYOWPB8v7UowNp/IL/4Tpw3j9oqVv07spPaq8M2M+77L06qy1EJAsi+sNYceNGH29MrG8Ltn7V48j/edrZP7hCS8/v+LRN7omlKWMu77P6T2vUdQjk0q4Kq5DaT1mTJhm43X6HXCr3TKz/XxO/L7povt0hUrEVysSsQu4XiivmZXNpT/xHuSPvhHvf3d+6aR303aPfqCy+b96198Fc6GWSNLC/Pe5Gbtvd36LVcwf/9uqy+99b8QNwqrVCljXFxQ7MxMyf/E2YmyXL0gQ73707v14XpHwbaPlx1+enuerP/pfFZPGaG6vg9TXfYj2fcjZ5BnqsiHm21mg64TcErxdWWEsKrv+NE2NqKUjQnFLiamB6OhuPNhWhnd+7l+580ks3ddwp3076b3LmzJ7TouI73qlSahG5cfa5cy/wx0cuFwcaVrQvt0t+M7S7sMuvNSIS5VJ75aggu+3ds6jVhv66tkCnjYyN/ckIPpshmuta+hsPN/Vjldj7M87kehdjgyQ6ulGlpMS9ZD9tfZe5WM8RRg/hT7evYzZ3bct3hSGd7BNE+U6YE+pTAn38K0x9uGfSeK49zZYbLrbyW2FN73veK7veRIqYd03qz73evb/oIb9N+2+queht3vlt95WKm69ftJFGbnfvtjGceDKoXO3qVkClx2vawjdHY3rL23b4lS2FbY35NhKgxeIf1ZL57a5k5of7BXvx2Ln5D0vu/a6MFMbMb9TwXoTDM2GXj3/+zf52+1dDuFlBW/3L5vdmt1C06yf+ZCSFGTFuZxbg+it11VXrYSu+/spcI7+/fWVH4ft+/xXtxyupuLjK/e619vwpjiC5myQ/BjJjvLVWCa75InYtmXtSPYmikw8i1HyfSCL2Cu9R8fQWZtanuoq5PJ5O7OFVKUgt6jnhcONDYeaI4nCDfKOafZp3aguv3fy7hS/vdy0JjMg7YsWfJ51rGB3I0OOkcmiw/V6/f67QVp+DGplfWi+O5niMQxfJnuIsj7ryfSPW946mKY9+Rex++/P/0CKXl1eDeoMJqchoV4lglXp/lhIn75mEfGVtwm2IB2i7/8jhbjYcoc5N6Koo7mzu+9cZPEjJ4GJRMd4a1Hqup9Urz13/X3SHbXyStryIIR8ZI7Pxy6SuXanPUmMUKuxXIm82F86EKv5v8zBXAVHid1l8grP9777zsT1+q4m9332Jk1S6ObvWQdzkZkR8z66pAnZp6v/VFCN3fd+tp0Qf3yFGvvp4gUJ9bITxjbo+VbCAXOIBTfCPegtsPuELdWBXDcr063nnQJ+/NxeuRBiCFvd9Nl37fX7K/JyK9h6/3e7vDH9Grrreo7HbuZsed8VtKeOJd/Q6yeVqyIx69f8P3u27em+v69lCl0Tkrb/f+58v3XFdJCTTjq3kJ5m22RiubAkL9AahXPJOfyT0Zera4W9iOqpCrJJL3KlbzDBV/v2xl93e++9+nUorkcVO9mxAlwTst1hsOSgn6A7iizPQFqtLPE0sn1RS4X43j3Boo4PyDyw/RA3PtdneH8ymqQL9zGbdft+sk05KCW2/fmJNsE8v73vchgRS5fcZDK7iC0OwCF59W5pcILWKeRhnQrAMX5ZwXqdai3WKpaxctYOiS4ti5YIpk2YQxLqnixk8pNuQdYz37v/+Fqut3e9+v2ZMwSvfyZorn/eQdf63d9mUb5Nmdnrv/RF7kOeu/9HX3TG9329+f69frmBTMx+N3XfSNyhyopxDKaQc4KpV4FZiIGnnFNe+5VVGE0A6XC3f8k/w53q2TuAqJd7iGgoiBSkN1Yt+1LV+8nHZA15/r9ia5SBHLJ4r2WK/hSvv95s7Pk71ofdXk/v7KMv1rp5//BTe713+uoI/eXiRsv7b3dX71q/XphTa3fWr125xVcJUi88Ir96Y28vY7377G6v/k9Rg9DDnE9zpI1dNq24qCoR3l733xLPEiASVCFW1AaxfD9fnzBYsyYiJFA2prjMLUAuSPrAg60+XcI3JPvVsLg9AROJvtMJBkIXe73t0/hTl5mNtN8+W96xShOPNrxXve+Jibve/xnixF3e+/hCvfMxLj3WY4U77933l/eQZdXp99ff0Effe7u+p61/tHJGXvPv799wWd129K/eQEFcre+2X77L32nY28V26feXj5gzK9Vq/9V70bXLh252CTbio62YhkOjyjUSLAYnxdzRrY3f9XC1vwfwlut7uRDYkgI/ADfGcaEDu4Zgnub+/p7mymLi+Uk9p0SMGy8Cu+wFjmF5slMbjT2t6zJwz6tkJ2xXGCr9lOz4RoX/9DmK1x7sZhrpf8Z33u8/TvfF/hPTp98kZ131pJ73MQZe/uf55P+JQy8uX+7ZWNfhS/d982Xum9hT3qoxnart7euoy99pUnWXL/hTd99++13kBZpuufHe7v8KXfcxCUQ4nqZjYoP/60gt6Z87bXPD6gKNb7YEBwgAAAAABCTAAAAABYeGh8sdjIPMNClJyC/azkkUsV0K5T8PCrkFeK5BSwuL7TQ5lPlyfz/g9oV4rfjRW9vHZXxouomIhBaZgbUe11JGyV6EhDlz0oYGOEupSRdtIArTNLfgm4MZslsTSRu3ME4jnLzT3Vdkb6hI9ywpxXKK6Ffh/mGdwj0j5MiE7QsFNEcp/RajIeXWc8ap8aijG/tTeI7VzUkcQMoZ5MeBUe8P+0n2hnXnRiJ9XFGz1C32DzShRZghP3oBJYazQDOAArMDIgX9umwykYXTVugeZt4v5+pCRkA6ZulDvPBzbbSA1HWeBasc++vAHXSHqiFI3hIKhIGNS2InccUZ9EWZ5lVM5wCbtWo/cxq6qnz72SkSLfkJsW9cvebNqAX41S0FdCezonl3r/SGX8TB3vg0R2XPeA5FzvxOmdOjAA6UGmHmDznGV+l+9sO/xleGMYJQWCkMxQ7/G01MchrZDf/cdAGG0nmOJ5pjcyx3x+8b/jfxRHqmSLxI2DsqLSzyqu4ICFPE7vzlTRUD9itiV1cHacpmfrfBIqsZ5UDUdmoGyUGEz4abzJs+o39PQw5CBDzc75td9yISkK0I2eqN2nS7UCb1WeIdP5P22MwkN9XD2c+74rMghMX1Em9LhWa4tNqMsaZ9f+oyUmv/wUa2ARzvGB3qO5wI+XF80ZWPvYkuuMszHfyG6vV0Du82LamwVyQJ3+ztEL6oU0bKYYJm8E/nbRbjDxkGe32z9AGr1tkLT2xp0L6yfhAoidjKjwJixIPSpGYYzsMW91lIBN8Qkn29cgDK8rdFQpeHeT77X641u4f9+x+wpi1t/duB9949r0pK/cgkZctN3Crln78/oZsuN9fMsPfe9FH3YsyLRtD4xKYefCcGkyMJ9Auwn2ZSjLD5KmJDuuf+YKqVT4yumPCRLda/xNtdTeY0NA5znnPEwsyHCHeaNAkG0x22NvjqqthKXBhG0BOe4gxt4jaNMf4pKxAwFwEoOMTg5uPBALJgJP6f7inNmAv9YFHJQLdmCfnCsUQEk6fD4ZhlN/NNbhQb/jMy+7Zh/o4mCxaAFzNoTFfnOmECE7Rb/zFSnFDOf+Dd7X2fP1g0FRsAYhcLEOPhOIYE1BxgrLei0IMCvje9r+ibcYQXQmR5o8IbIH4tjssD5srtX+qp0lxnjHkQvrIc8GsM9xZSSLLAVze33V9UnlOTbjNca2c/Aes4x0c6BExdYuZbrth7wB9BEl4S7eoLIi+XV0GQZiBQQ/SCt6fSQZesMRlopgfbSB/FFT3V1Tf47/CsWfiUK0zJrmQqpTXvVuTf//DM54byxSmp6De0K+Ndc1JsVcdFwTlCqYB92RTz6fXNrVBSHzA/hyXOXGu94yLlFe3aAzfAMHbqpjV9Cnn9G+TfawwpgAz0Uz0TBwwGn5xXAJTAEguWgmAYNu3oajM/7345CNflQWTet8MPz/XDfRwlfjmP9Aj3ewM8hBWoMe7qdnb1uMmtWXi0u6WmnYdo53nEb6TCHeBPzwMe/+O0M5/NY0cZoOS82eRnx/hWEnHLnsrv6/jQ0EAiSmg/WAT+/fUd76n596LEnESnaGSn1yIan9uNOo25Z/RGn9ihFosCwxtUPubCvWTA7LV2CMObgs2TwiHE2QESCNUCE4lnAXEmbd498CQdiS1OBHno/Dt0z+rYyicO+Yy/967qm9c/CNvW02X+n+FKV9tgMmW6hXyV23nx/Ebct5qzvBQYl8IQFleupwL9Lm6E+44zsu/Uc64Qn1AfoO06x4XVmPeVDSQd/ikBP/OophKCTwgWQ0PEPH3gNVNCePQ+w9dnj3PT4txZf6gLBVjZlLHv+6yjMNyOzZiVSWcGb/1PJtkfct5/V6sdKT9lrGXah08SPGmUqLQD9zp7ufNFD8h0ysTyfGcKqZzVta6Ziya399f55K9CsPbPIbkCwQwtzJ+IFwPlVLxSAA1UwbhoAZf/XKumcZh2hSqUVyG8vYChxOVAzIc6ujlh7F8e/6gDabiOPCvrdLo1whj0f4T5Oq497NuRGu/oZj5hNbcj1uTI0TmC2YLD3Dwg8wBRgh8ozqAQ8IQl2vDE7r2ysfGIRN/Ev12xxVm4BM1f+c0eAsW+lYz4ebpExmD/p+7IBZwe8xY8f3hUFvbPMW02lsQO61hOHbq1yCFTzmEYEbYrs3/L+E4GEfiKHuDUUaZmwTS2Q40d2YbGRhEojGH7M73qLtvGVruJsPr9H1TEBG94deFtvJMNB8URN1q1nk+lpsV7ijcCFrmGIB+T9P59GI0CjPggFtcsfniwACx5C0PBwACwtJlgFwF5be/MlVHRIQ13clh03N9bUxkP7mKwVR9UT4ym3G+HRQR/hbJkeC343ll0CFF2DqKixtImPGDVzMDflfhK6FJ6hQDL5ezkybgZeEDJBTnZ0+X9rZOMpdrQ4Ga9vx7DtAH9/fOMyuaeufPhSAo5P8nP9gQeBKlnxhziujnsBJ/mGuxevM/gNYE55uYg4wqseYzvnn9aHy0s2PoBKDKjmeZjJ6ksiINspyzMmmWmQcBstsVtWNdjUuod65rpF+4B+w27asrCd1xB6HH9AnETWW61nEG/hESxb/m03tfeNniB0ZYyEWbv/PcF89Z92A/4NE31BM332qj3X+2rDI0YvI5EjZ6MH//aqSzgfoe5H09MxdfnrjTsliBV7kucHoLObxQri8XRvrpRNMTBYK9mzkp2/AZYj2CL99uz4AP/R00Y1X7D6yf5VjYhVQrntZc3abl7+wRnTdKk7y4zLetuL+z+FIcU7kHLSxGCkkXmSzKmZx01tGsn7N9slroZZxtvb//4M3RG7+89xtjXK8Gjzm/nVtFIYFMczA1iv/+QNn1gSQMbHYyGqP+qZ5mDJccwPmqQzmRTqu/zT4eICmqC6c7WrjTs3oq7liqvObQaRofOPPYWHkgLDNrD3lssTG57u5weLJVRvH5veDpCx8Z9w2+BRYL18QVXuJu5zNPoGyLFWR/36u+pE3VaklCl34OTPkquufb8yIc0oaGgY/y8FOHNZXXf//n2u4bEef/0R7wGFro2k/b3h/h6D8cbVR8YDsR6oHNESN+Vx6EeW9p4RMT0XPq3mBBe3B63LLm9euWOM3zzKo0IrLGFCBRw4r9IskpYZ71l6C4jGuhuAGMN5iQr+7QAjNqj+yAopsddx2gkGCVrS/IdB6zV/8y7Fm4zvl+MHvv5zsF+jyyLXvCv0Ktb69fsBoXxukJzsQptCtdMQHXw9rliFfkIr8KIeB+7LyBu1ymIbaIWeOJ5qM/XkzcdF2HmkX2Fn99DdXicmhjnZ6NDMgt8ttt04Qrl/B/XXj/gMeMK0yGJEyWL/RSeQjdSjY+HomyCxk/g195gfvQHrQ/V94j22Q2E79O//CZ2AFJsuIhbZHB/8nAz9qr/7iT6McVjD57H6Y8AFqLMnCLslcc2q/nkuRjbI0trbhj861hvUa/s/5xV/27qYqx0lW5bL+1hvKe6MC81Es9rDJGHx/ltNbKV8FLopilZLKzMklPvIei7jvjTQrkg5Dw9cd+fMpnB/tngqE5RAS/fo3//t3zH7ZlzmO9nWr+Yh8haaRdRBaz+SzGn6xoMZBFk7xY71ilsS5uXDNmn4dMO877TOzgIk4vs995BRpj7mAs1oVD5DSio+Ojvsb7yPcOkc2SHvDLrNr9+zEkGfe8PaTZmG0/XG7rrli0xPwijaXeGLO1klJiIo9vwMa/4J5O11Vt0Fo0v0n/XlOaWM6KmGTse9j6/sRlzxQpUW19bGx0uEPP4S227QL++w7oU9rabbmNXeTFoPJ3/oIfmPO8ervzkEB143t252pzPcyGCkKPyyEDaS7kQhR9GObvqUZkCS11j+RKwLr0yTPv80v6H+N7+I3vD1b/vEX1vuTz3XRf6HQzVQPyUX+f3++oRwQaLPIFv8n9D/xbwv+IOi1TJPKMkiUhsPVnykArSzX4rMViqlcyLHrZplNg6YRc84CtWHLc3N7KrbRFkzHz8HXpikIHPRa4d7DQc/G5trNoK0kpeJMi5YRlfsF1TjIhahaDnX5/SbtrHhRug41Len/dwbd/6EK+oZsrGCBMCJuHuv7SXRSus3DARnQllEk/ahvo8ubzfIhlQLIFLUuKNopVqvl2QTswHkqCRFraH2CgSqDlqDtufil5Wg7z1kb3ayGpnVA2pmERT2Ky9c0+HzmzeMRGDIw35cBXB/szRKdeHezmmjEmbzjqcMiYZus0cK55meTykmYFpFBVwkFdcv9zzANbVG9FuPAKlmKdftwdynB3J4sinriZAM+M6mq+DTmWZOEb3xxrfaanRo4R7auje+J/OvtnjG4x0wPe78RNb04+0QFAELOpzwUAXTLLY6S90wzFFrKwxxwu/34rdLZXtRZpZf2mumCDwbxml4btz3UxUCx0dQDj9WBHtYap6/tdEDsD3mD3gXbre/5vjf6+hfwlzrcYr8Xs/W9IzQflOuMU9UdIQbJox/iNQ8xn/154zTs4x//U/EAYt/8rw5Ro/m/UIxlqM9qD/KS7GW+79yp4c787CXLO7AQtXP8bTya2B0lEaUdygkJL1n0XJGZN+cLZdLwNpjBX7K5+fro6t/c8X6/p6qQZEtEeOuA97iIHb/wHtouk7rdEPPZk+P7pYoSwOoGD3yxpx6ZIIp99GWHIo9+AtrSi9AzK4tp8Zftjwe1zTOCyWFSn4JLljXkysZhTgzNOoG3dSRm8/7hUAPkk3OeizUk/0cHwoJUNyhTBYy4Cs5nqByoqR90ejfYE6/bj6Vyjf2Yau4IsrPEc15u/xVvRvrX1883NJbLov0xnudPTgdDJpObYGQMlG3+0Q09bkkyb9yLp1ws971m2d/OZ3oqr3hPrXPbqmbsNs5QhxRz7ESaevHYc28VRobeZsNuS0DB359+SM4bF0AkQQKw/DG2biCrt3haxAQn1ffx92XmcPw/3jvJZz6/b1J6ca6mpsW0FDmNHeoowcvn23gGPJh0DJ8mHl7pl88Flh6J/Iw7j+sK4BhrPWt/+ylQ9xkMLRrxyXDs8/bhA2UQFH3kPyHumwmnk+DRnyAiEe8YDvsbLm/LxveSJk/52dMQ4VxF3MFs/ns/IIo1kM5F6/H5f23b1vb8//av8MTbTfbNbP1/Gb/f6gzJmIU6Z9/CuzqokaDdbnePBOdZYdHxre/P1+ffwpFc0/4NSQQKLqD/kjO1cdSCrJrvHfGxHE0OOtUkJjcwDqpT2N175OrRRA0n+n7h8WnY4M+CIctkuzvAKN/w9GETh7Zgo/Dq8X0P3djLLUi6wL60bZKH/zj/a3ONP8jG8qLtk0dmOqG0P+g7rjZsxhRIbZtT5RvImw9MF65ryJ+WiApOm+e7EI+x6f9Dk8WHZeddbL/FwVWIb8PqO/HxxvxAJBlJC+7iG0dQMj2brFa/Kptt5v//91divTJ2+5vf8j8eO1qz5NQrs3/ng2Lxa1JsFmlAqNTSyNRXE49/3UkZd7D+9FjMWul64QgN965zHkbekaw+RfFDo4kPyI3M0fub5PralGZZeXPbymJPfQy43gppmEPV8nxygNvphrBJDP2BD2k3xt47TIjcKz1IIb2qvXb1eNr8/R7u+ulR5wvRFeuqRC0inBBF9H9oX1ORt78EdxxvkGeNZDQgKcMhO0+oNIpU/w7NJbasrDV0RlUF+CFo46IJPnsjICsZ8wc4Fv6w7/x5DB25k9rbrLDAeQI5FSZFtefVB/qwPeNYL1TtIx001jBipPhcwXEAyArCBlvZbt6gbjVfbwY2qo31/xY9y3aR5CAbZJPvsePz4W6H2dYg2dfrbp6WxVsjf1qPgZOlD/npBmxMgRcK/7aL/tnoMllPwip1HPua8WArcfrl8IOyH7ElDhocYytxkHZH1n76G/8ZpLSwslqY9+q9/Hv+cz8+Ac7K/Dkse/kmhy+8os/XGDjf9Scbv2GCZhr4oflEPW+3KzhfBLsuldXYxL61TWSFkKjtaxCn83x/9hPNRJDT9ObxSp+oC3CJs549KgdIqq7KU3cEezbY5Aj393CPF5Lrg55gnzwnt9P8Z0bR+pwuNuUypOHUxnir3GVM1ajN77y74eR+OxHQydJ4M6YPwZpaNVjrykZZuJGTKkZa4MtuN+EzuA9Sb5fihojfA0z/ys8DqnLD1Tli6C9qtZA7XLOf229RuhNmxj4Kkw3DbbSqY2Kt1Sa8orbqXBih7gkenzVT46q9jev9BbYzVWSjjhMsBv/yp6kaClkh1nH2Er27fQ8/uQ4ejN3zzbhdFIqQyuPCGIRYq1ibaHPVM/pObZVedCajLu3ot/9c4cri4Vy05r5r6NvO0XvKYZ4xn0wdngo9293LeRQtfGfdk+3q0OfVGjuSISecaG6UwPvP+OUgep0NHWIv/wPDPPcv3mDwHoUjG/SJ/apbo2ku/UNxyeiB/wzMLKHYOK9L23kv3vMJ8XoWkMfxSK/4RH5UjPeau+fczo4ZvMNr6Ot6DRCKeTkfifri8PjvqVmJY74Bdu5bKDjvJs2NBsccEORvd1+z5kP9jsPl2VAebNyFcHmp1Fi7zEEE/fwQ8JqCZuCvzMZkgJG4+dbQZSbzHMwfhX94vrqbt24h5b3CQrUgh82/7AxdhPHLNQ3j0aLozjwBR4jDxYoNibhePd5QKIy98yovCmnGqXvcBzuvA66yhY69475bGiQ6wp+HGuABt7mcpYcYDeVOvtP8+dur/b+4gKoMUY0j9XPxoe6D/t+RQNtiOfzS9AfvktlRyMce1ByBIsX1emz+wR+MJcZX+Nthjdkuf9Nt9evri+75ef2uEPn2lt93SVoZh5+DscsznvvIf2oMevG8kqrhtaEYI9u64S1RxqYqnqv9+MoX+sL7VrCWR6Z0XoA5fOVmevBwUsThI6AWe08YyZvydgR6/Pt/85lJ/dEQ3uwQBo5wFcyeaZjd82WJhif5z32o//fRth7urClUPRP23WG4pse8M6d8kbmn++kuv8HpBmYW9e19c22jG2k/a1u73n9pf9wUd2x2IraFRvm2BMcK7Qc3X1BoFNvHs+BVyz6uYu1EB8Tzwj1hRIQdC8BNOXpJrN5W+vCcEGEDQbAD/53ILO+vu1sDAO3brgD/dGDuiLZuV9fw4Pd5vLYr909bf//5L/QKYg40M+Pxtr84d0k+V6voY607/11YuZ7l3HqI9f4qmH/Lvd/zaABs47CslM2YVlHE3TCbH20Ed7fp7KXddhUqDwm4JQpy48kZYa98Lb6IEJMBFmkJcz0EeA6ZkufPABEo2YbgB7pkTFLnr7FdQvYmEQNQy5fdOQ4gz/9B//z1JFhJD4G40DHqY7n78KRFY1m9w/PfVD/Uv0EeTbnyNefp4RNM+ENUF5WI7l6LxnuOq1qo4inxB5WBrT/iwa9EOnZDHcvGSVq/5PcsG5Zr3Fa03HrGyDLl8NJOwie/O6TDcHhmm+HTNZL2EcZwAY/8WaYdbik9b6SfdNYJoMdf2b9LQvsk/WNma4cj4Y5P3HjYH98HYRCktJ7FqbyXg+sMxRUx/O/tG6gdOCZf/Ff/0M+MkiccCAe5Gn85WzpdN7G4hYZj3p9kLSZ6MsR7Wb+NnNELTWfba7LcwWyXmWsNZb3RBXzyZ747D+9PQ/vjuYtZcGrpcWWdW4bp4TdRfvQZEtjIMa6XIKi0s7l2+yvGlyOOJbdXurOwaT2VDrDZXregzNmZuc/9/5DSyeC4DCwJogDcgNQ3sP2gL2bT/dKeYXbMI/mqNplaOnOmBgF5KOJd57X0p6etxcF7PM+pu7m9mEqA+wPzQ/1X33phRq1yT4rCFFjEJZSB6xjNp+f5k5d6cKk/KykCBRfRAMHSZ4Art+TrxVylG94jSrt30NHHECJsALd4n5wEADaxuNxJT39g1EKIXgKanv/wo3+dy+l2h2p06NeTF93yEH9+Wwo1e17jK+98YMmmPLR1HvRmp8x2pqM2Nm7p0QFSqsyMv8UmwCU1bs+Eb8s9AxkH2DRW86Xs++x14YE0XH5M73+SdqPH61nP6Df40z6ivTl97MEyiRlfUQjy7wyUhmky/1olyvOPY2ewY4loFMVVEhvx+WRF5icTdrS4QSkzpdfY/0HuV6YbK9MKKRB/XXaJDXur0Oo5b/7+E/eTu0j2M5/dletyWVaK/kr+m8Z75ZllHvFZQKj8JG5vzIhmfVjBmlr6RpLnbtVkx33qB2nMtVzijhMD6nO0brhJU/lu7q8T6t7+nQHagUYneSLjPtQkbvqqDpCUNgNU8u5unp4ghfIvt2YQP0iFZgjjWUB/zIveob8PKOWzRK3oB22ZKAj1ONe97tG3+/3AVP49jBjbxgLT0T4U9Pfvv92byXkH97rZOn5PkKiixA8IR9TIsitMAj8ZLBdJZOHLiW3af5KnPHv4ze6imz7dtZjYzVRH24R/n/H6uIxjG5fZEf9u/Q/JuBH7mBjUcFX3hL0L9UXnmanG+Ufga3rX0MB8Z7URusGhkFzcdIRN++Zn35wrNyg0FavH7ol+8lnuWdclk+o9mKwhVfZGfUIAgN7uaD6xGNP7ty1hKq1abT1GJ30pegR4rwhVtIH2cIfMwJB9J7FNW75ZHuA2s5JfZ1rbM3iG2la10GIl2vuz7msZgUa4VVniQnLk6+xycPcgqUz+v4z1TdN3vTp3rpgsp7Xef9+7u4y7lo9qIWyjcl5fnhpoafKMqjvxNmEnXGvgxLBM93HS9c19Tjf6vfnEibPWXso9zHU8Ax57dB4r5CjsFVdBidE7QxkQ/y3864NSVGrCrAIRbkrbehXKsScVSlZg7e35BcAwnZ2mwJh6Wmne95qQId7yqo7NHJYyRpL/cM6noh+2O777p5NB6r36b9V/9BS+9rn6t++HoZmYdzG15dq9PnGa6O9aaXkZ6fo0/yePUccuKIby9nxtYly75PG6jOJxWCQcmdgb8TspLdYUWTlm/NMFW/iwg741e3vDnyexvXMeMnf5humPut//HepG6uSJ+TYne7vricEn+/DfZPy9DNDpwuD7rWeVqntEBBBNJ4f6Pl/uvL2NHDQpFLQf5RQ6oCEeJW9AsomLDrP1yGlJ08ibS1ic3wh63wIa8PtYO2D3IJGX8/+Zl/S0gjtybLAdNGdB6t7hCVarNsUfk4zuvOq3x5MS7k+hb8IR3C1D/h9U8fXcWFopwY4rCtMG4L6SdYIRl+sYICZpB7z+QsVokHe9MhgxZmwWrxq53SLJ/PJnURQRhmsZouyz5um6NkW/H832scZSRrZHNI6m1y+/0KJBdo0cU5+7ICnBC1uoeWscOWKdkx/HVy183Qinmox+eu/xGqyC9jh6mX5dbzsTTzsjRuUne5nNz4SDmwl+bhHmeRMytnQmblMmQIWpdvsdd/GZCUjUxGSrMJ2enTp88fi9xhInDYu4GjZjMJJHf5dF8BN9xl+hFrJ9rUwyHlaE7dx9A3jRxHPhtd/3TxC7cO5Gs6okzuoJ8ilP/+aRd4jQIJV8fMc8LUgZ8bP6L/fKcT2s8nNn9M9aqNKYYEB4AAAAAABCTAAAAABYeHB8eJxPghOpeYV0Jzedz/BZxSw4fixTw2L9SH4oV8gs2OmR6Gu2fTF3Xs4vmNVqUqNPQuv+M9+fGDhG1WCHrMjvw7k7hsV0K5VjvILCPon7y5k+mRk9WyDK9P+c5nMQ4qBDg860xTMGhK1gdEaM7trW+pOpgSWU8HfD4yEjAvgqbG/Q7ZG0wPA4Cds6QvgSlhABFDMZ74x01phOGCfu/2IIJ8n6+Ijj1/2+ekL60OJ2KjtULNvWr/Hz0ZBRj6OLCgwyoMHirZCL2/JhnG+7hjRKjK5odQWv+nWoZXqyIiTzffARJKGqT+cathU9I8K9RcRNfXq9SestUMTWhAn3DMMbE6uz/GRsyQMt+Yl4bvSpYRdiGsuaknnqmoyPhAhRmvrfNSIsWw0ZfoHQCB5pueYIW5AbPfCcC+hdOUgiJdfeq+yZwAF2rPlKxqD3y/chdWJIL0q6kre2MnGsdaMfGJ5bXlyvy+/wh8ko+FD7vDJ3diuqi9ocLCQ2p55C8NfnSShGHaZ8aagn3QO+TLQSsI+T9TmKIGerfwm+yLWAekqjqJP9NJuA/oWT/1f3TMiw1a3r+n1Gea0sZLm2j08acHk+mXwjJAfBVs+OzNSGn5Evi8S4k/B+UrlG7r/i9j9XVsryEvF41/vx6W4uVgaLpkdPf/+FhObtdCtjh4RcgM949NRe7hPrwP3q//it+83rRZ1qO9dTZ3s7UFMrZhh9N+WDcwh7r3y9x2EbmcPP4zcUiI0Nv/qDDTF5YJmxy3VJlWfihuOodo3QSmG1zfm+kiyjqeaBf+ZJ7JMsUBWrivDLrN/jNxntc0kNmSkFB7vt37E/IdBK38493X2J6sE9SlmUeF9UlUdmU4c3R77xXGSIuPrpeXu9L8gicSk+uyRkVH+0GnWWiSj3Ip6dmYbvgk+b+/4yifx/Qnx4RatFWsL6rb9JMi+Z9El30hla2lowuszBF4eXVqwsO4Q4x3qQcD+CPwG45vhmfX1r+8fk3FCnWIWeGMvcAW07kuvHhWomadY6HYujVz3zrORn8FlvhRhPhx3j03ds3gPdnmZYzv73DtPugsH5EDBLPrYpMoW6RdubXPppBX9vpVTCPjhJ7XgTev9Oy8b7Pj4rXVZ/9pZ9TDUcskD2Sr/BjS/DEpM/H5Ko8zU66Xq9DJc3LjGt80e2sNwdQIHGN+CeX5BvobzjTMeA3+WiTs7goNr/XF3zlKS62C9r2uo7BzGbDGBGel6dK0tjUQJAwIaAZ7O2eIX+xUVYy5xgkG7CNxdubtZ1qbu/J9akjODX9QtSX+/2uUz3yeIqWWNuHyZXqRiaSRCywDM8r5n/3gyD/9/YKv0+yvG/APYHty/XX4M3KcsRNY38YR6emthuf6UdH0WrUMQ4ClaA1lz0Zq9OoTCAWl67fowL+w+/YXa9PxuWA8C4FGheMdC3fn+/tcc775aRu4gevs/RFjOktcXKoudOn8d8Ky4sLCZM9gGIxbX0F9hDG5QCFv3x+/kEBqMphb7G/GwPU4iMQx+eX9EkemnClJk6atJEt1WvW80P7oDoZjPjfKcGJ8ZdTDm8UQwJbKCE/yBNfzCA+/jqL9Z2ba1C/H4Q6DLmvKjf8/vgghV961R8VZmmSzew0i4K03L9C/C361MfxdyJ5fY/pkmRD48vpuslftksO8k9L+HS4ZL+6d/ffDV1/3Cnr7X8XRLwY/dbmzxIv0LiP3kir47Ffzw+7N/3SYjjcdaHw2uh9fKxfUqjw7KGtV8ELf5oz/lCbLEI/djb/vwjjyTzP/O/oIeNDY1wp/v3qLEvOK5cnhml4/3NzXBxqBdA9Onqo00nGurJCGlwvZBmrg2J4TuCVn56P0XjJW8n5yFRihjhxMkaF89Vf6Nb3RofkDcAxvxzohutwd/BJH2DsIXG/Jkl8fEh5Al2G+CR8z44kv6aCraH9IPO8Q4t4ydWmQc0gN/CnLAjPmZTEBePAuIpI4Hm/8Vr0KEoeGAwwitmhP6GVYaBYqVTOEbFRvwnas/7Cxm87+t8OoDodGhoo/ZP8b7C4WdJOcmbifHrMbPmvoJhfQy5cSXjh8fnCPpjl9cFnvMZSDfYnt/3DGauLuH0Wf2CG7fiuNILWZL6IFLyeZC+oVqsyGap7xQqasJdOkib2/X276p3Qj303+FdJ5pT1u53sJAaty3iybn2v8fTtR/gr0yc+WF8o+jRDCNsv/MzMlkXDjVPGeO9wncOjE1Z4cDuUEIyNB4q0JQvG3hAH8hzjFXf/Bov01hEEMuPp1FCuOyVy8uFMVuTjOzMIIfTxCFPKrJ38Pyb0KH9d6ztPyfUukM8ZGXp6519jQFD4Sao0/isSmI+PpG7Gw/Kx4zleEfqocOYK3HcfB7qTj94hIDvGXj6kDRcD+ItQF/ekVsc21RRmsC1Sg43aKhKtIBRohqPQomBhB7aDs6GY4i93IKloY+yjB3sDYzS4Vr1f2hkaHfgmqcqZZ3ftQO0QGlg/wuwR4u4Z1I5101KO8Z0jBu/nUVTBFLI27nUPfJHyOSbgfvd6/2FWWMmCydKaNOSXuL2cylDAYH8dfNThL+7fjJo7peYuXdjBHfHh59NL8L2PCHUi4H4cup42MRjeG6pRm9DMTrB35ykks1Rs/Q1j9kOsD4ENNlj+gP98+wpE+5Yjq7PAamIY3VuggTaHgGNAp8uFjNF2/7gEJBfz+8qrgobot8XubbpkBTx2Lyu43x3EB31Zo/ULjtavReNJumuFN3KIDhEoZLIfz9mXlMUSCQZA0FYBKgQgl9S5amL4QsOrQd1ekdurzwX9a/c9ft60M8wQCGERASt0n+cWgW6sfBDa+TQDCDcd/7bx0C346n17Q1o1NVjoOA/yiAkc1RJ7XqM04eU/9SE3w2I8dBUL7LlH9vSuPv8H+B9/4GIWmzIb7FsMpLrq/ZZRgmBv4R5ccwgMiIeHBDy/YkEUG4vcfC2PtodQUDO0B7q52xo2Vfd5J/p1hdi6BdgoX0bxPKqyx1Mat9/isEH1/UdLlaT7S9dDI2J/+Th2Sr5BAeMDdfhGHbodJMihPDfmJ5Rg8n2vbmrB2p0N5pn8ZHReqTh+RR7+9XjuUMBDOFXhgPjgSVjb98RG2Zj3ueg947MCLTYO+Gc16X3YZkU/NSv9sVg9vwtxfUuX9XtBLi8hn3uvJ63dBHh5UOmFmVf1GYYSIGXaZ1WDPvOVne+9OpR+75oSZHBP9VQQj+HM35F9sr/xkgaqVTv0PGi5bPk4/IbpDb68O3Up5FfxeWr+hQmT8YNIUpDQhYe9Pz5yOdJ4txX1ridtBz05WuPlvyugjfXlj/+OqZfxyqynPN4SRhfykmwhE7H+VenumXMEHDdlHB16/0R+P7dSb5vDEhxWXJxAcqTkLGJyHPX+hDOEJeuNHG/v7LK/OyOdU8NxDnFcf5JbU4Wx5D8t71ojGQowyKxWVBm8ySPaiwgEssn3ePTp7N8Idsn39yLRI3YnxXx08BzuRBkkM1DnH+bjIgffTDLrFmJl+J1Ly+NCFDNGqAo0tQgQIAAAAAAAEJMAAAAAFh4eC8Fo7e0FYrlO8RHOFhyl9RB3iaKTKxb0wj3LkIX2DIfTMzRNOfhDs/GcpB9cPlUWmoua6/RImWgakrZAjxvI+WEb5fjO3zlyesnvSTQzPS+YdhlKGEzWkRM5qwMlCqMTDCJ2xnzSOvjIEetOa2aknr0RcUc34jYFL4VLu+i/imUIBJN7W+cV+A/2x/aDUQ/T3GU70ClDXFlNrqyjCddP7vuvj5BBHS6RpGIR44d8dihsILSLXbqMrOaD03dMOVsJFfFJjM+lpvCHbjD6MPUG7QHxyo+EVjbQZHb1OrlFZ8vfk9vxDGcsMd9u2UiPDysIe55rScZLb4fBG2B/2gMViI9h4DdFpAD99Aerr6DQb7oz/trGU2774x9UeYOa+xSvp/GpgOv90er/nnp5R/xvf9p+3ZY/Hfc5ccjAVbzNdY0/UZ1Mb1p8rFtSDNFjwUf4QhIxcmkTxPwKPmvj4yYerpFUI431eJycEA5KmPS8n9HNMFLYI7yN8P4AX/vKb37hok9vY//CTSv84P7n3Ak+j6VeNqapghvSu6fUdfu9ZPLS0r+Mu/LQxLG2rSWUfVP/ePlpfjfNt2+5hjCYZG7fo/UIc/47HNs78D6NxD7i77OY7v5YuFX18v/i5SCMtF81IQF/cXx+U6GQfhMUsq6FY0lQffkHQePd/pHGIvta/5e4S8/3db1+8pQVR8sPw0i4PURr0OPFwjzS3YOoyDull4YFeMHuSFh5IyTyoEOlMKrhHH/fXvk9fTJG9+CHx3uwmK5Sf9LjM3b2M96Y6noOn322h3J+JIpcs8FPder/uyVwj9R3H4vWrcfDy4TUTzFtMc+wLGYD1/eDjw4N32oIIna2TdiC+SnK4jYo8mAN9G/61WLlz/GThgJQ+/mfvdxkYO8EA/HYZuW2wa5DeNzmrxN+OMvhDHyQdZswnDHdeXNE/S/ZcRJW8oS3vvS6GXjqQvhD1cJ/cfGiuAYvINvKlfYmmN08y5Uh9cL4wTbhHzmpXRPaJ+qf0gX346mp1YkSRev765TS0eEg43IozLF8Orag6TpZ4YAp5OwIADWsp8nmqaWLxD0LJ91wnfTfeT9NEbDHtO+vT+kjoI42+IhMVeglgQYtLWuotVsjiP34z2kF7eDt9UW4UlwuJewPoZL8OKZkOJU2B22XpFMxfksasOOUYADfjaggrYfXl5ntGqvnM+EnLvGv7BMOlx8dIj4GD6piCD8CDTVJk+dDUWk0TexmOpitTE1yY/MvyqIX4lA7TTM15zIzYx55QAVb+Mq0xwZ+Vi1u8BX8tnlKYrHm+EIEPw7jOUVGB9hmGci9XPR+tTPsvv1WNrNV91jBOTst/tD1342ZNhuqft/Y2HXlidBnDiGD0CeeRmwJ1HDzwTdyz/5IL7fvwh7gHf8E8DU/BLcvoG9X3Z/wyeetpSgr3wO20NJX2W0oAexXXr/nHH/kA/z5aK8b4bhtQwAb9ST/jzZtMbP2AuhFxkMaM7RT0SxmkHH3mMvNeCPo4L46nE3tjMXcPIZ+tJcq7vWrQUKmSfLS435EidCFGWJ0IcPx+EbOuLiu/48OC8kDAAbLC0R24z7K/sCIHC8IZl584zcKpzCMFmbimGk9WrQatBv9aBbmhGBkymNjJ79WF6KFsv4MygtTop82f0e0pxNYm+VC3L47e2NjqoVwBwrFrx6qf+dg5j119i/hfRZxxbrizaOU9TYuByNKX8xB9ROV/skqbCtKXLpRnSTS185n2m0Hs/6mzYvCimI/YX7H+N4fyYDKIER5Mf5TU/z8moK0rBVVjZYG5foF+EcfxfCi3nZ7vvh3ax9ulDKstfsDwtsXnznzu44I0U4k/DSmIXrXx+cMB4SOTvmOJ4IlzCIGUKZPlVyEBh6RBkVgICUltP98qPxfCfYb72m0C/z5huEDWv6fdZbV9ZENnYh5Byfn+AKvT8CVV5+fK/09xmf/fBmJGbcubawQVV4o0mMHs4XK8YJD++/0fhT1h344OZQwUM9rDK1I6J3R4nf0mgfzlb/l8ZXgq+nbhyIWNQDKQswQGa4nNdS2iWOAJoIClvarTZ4zEQQHCRi7x40OujRWvrfTbUxPxndPnSGQ4eXedobiGG9x3QxkmJFuPjizbhuYsKPxF6ndNCoUL4qtCI2OTVBCbv+SFNk/Hh+Qr9dBWBC/+n8ws1V3/4P+lwQ9VO9fPp9/D1M9Y9/d76/T64T3dOTfraphWHf8Dfqnr/SwGDXPf06JvYTC/H67z1/04ygbzh8OKZJ/a0EJr4+d219MZ9kRs2bU0aRUr5hzNLYy8Yt4xONp5g3SIJgoougIX8DkxCOO5qYcGAtUdCJhVhoOrrG2hWn8NYqpI7d9Y6R107TCkqAbEB++yzLdtjZy9bGY/7to2/L6d/jZNjMLy8tOMOLljcI7Vuhv2Db89PsPz/CT+OO3MfmaaFuS8QTN9P7gr9sq/3NmwtNoZLTtKJzn0jBBAWhAEhpTfaXTaYy/5cHrmG9l0CUVijjOCxZ4JPBDeN3E9zjuQSoKeefdUO3Qw6Ddg6w2auk7GD+avwzuIegJbq7l/16/0/GcPqJxq7/KqhxbF86jx+gyzTJToROHRK8dn7mp8grtu27fnDlev8jwsKXxUqMS6bTjpkJ638fj9LJ77uPr7CwQetE6ImoDze0uH7/2DMd9/G8U1sEBk6Qm0RQ6S9DHy4fntNf29K4UgmajnTIGLcYPacfsR5EqYSvhO+D1roZYYtZSz5kF5V//z0cGA5xEeibdrOQy90n290EYyIH6fCHDOlU91QLEbsExQpdMB/A9snjOcbKVFQoIbHgHw5g9opfowxf4fLcFGv1ODuWTlzmjcmH3dGWC6sb799WKph6J88WteIVkLqWQsq/8Vg7ggYwGg1hf1bHwQY0KIJll7VBwOwXhq/m3BtwQF/Q/mb4dz0ftJX2X4R0/LC93VIXu7xpUuT7+hszPDaCYYJnwPxjRuBIjJ+CX4zeD4dv91/vJ+vQ2pHr+f7EcOTurz84n4I2hX1f7LxlvCk4oUuhS4f7cBBxhPZTxOhByK+1mQvj3ZahAvhD4wbXCmzDYcQVDbl4uQIT71/a453jBx4tOx8T7spw+g0/hifDJLMZfFUBUqEh1/sFTJhaGmpWQnh3/Nxf4dZhj0H2EE+z7dWUBpdBdhx4vLlRLrLwJdaPdzNPhKMDgSp7rQZ97VmvQ/Dtb+l87Hgm80Q0jUx3sPCnu2nLfKvceE63xdVcXWEe0MuWELl5PStMBG1nT00SdApjJZb97HfxpvOg3Mn1L4zjuWh6mOpx+PFolRyfkV4SvuHRpZw4O1e4nIghYJmx/2lHYSM/y8PdeEWn5eZzjNPc+v8JctB+T5ZeN30PgaOdVM3mlaXO0Oi/SZ9TiXQHphYn4bCGUhtRwAvLxU/325FVggqYH/l99f6W4zzrIXINw2l39uE0KbX42pE9ek5t5gYUx/TsnF761/6d/4TnY94+Nm6u+FNH5WL8zM7OV8FfPReVJY4+PNiE+EffjsosP6uFYhOY/Kev2WRdjOfO5FnY5nnW/4zqyDl1HvYKJcdMU8im8hAhb8bGExRW9HmMwjrkK9O5QYrPH6exR9IXHacnf6dN8f5POIGyfrhDj9X37wiTyHKakwlMZ8cG6+DFYZHQTio4Zz6c2k47kyq43p1y6hfk8rAQfNBHy8jJYZ6tJibZInXBPbft36El18Tn/bxXJlyCN9jWTiu3MaXR3EKglOV9egjqZ7lC3cyTYwfjdCfVx+kq4gIuG3Hshb+Pp7HKkfduRB5ZYXaWAt7mwhbdjJ+dw7j4nJH8FeGYgb4+EBGjltT+4EaFyY2/MxFQKNGCIECIAAAAAABCTAAAAABYeIB9w9gVT8GjDATReR9TeN6ZIvrcCZp/KyM3xVstKCPPtkcJeVe95PptrGX02r9FHROnsAarqZ2SWN1Ng5En++MgN/AqnF/YKR0hxj25C0XrdVsLmIfJu6c81sRMubT977j+QuHQj9hde+I/5f7v8ZSMt/GRhbDZYd+vhDjsN+kYmUg5qB0/I4pd1j7B3jbR/TDTLZIzR+fQjYH9DuJACNbqQvwGyFLgHFnB4D+IjRCTDZNIKwM/UQnytcmNi4Fl1lKELR3wxxDQDB/jYhMKQ5inoWL8tJ5kJdIfhHYNsbMzkHjLQQn+fJ65UoUhxNRQX/95bAkagO+IU3y4iTpi1/9umIgmeO5mDP/0ik/yfqE+P+448y/k8iq8I8fGT57fx0PD+LoY/b17R8OaFYeS8VyTHBHxVsk+Fp6Q/42SsZBR/lpbeEOVB3nSB1XPCFyZyohMTwIvYGnl+98LuSglVoNSJzllqixRP9eHMlKpR3hh2j/vFcffYfDMSwi/wh8bfY/Da0bG1w3os0o6f6XifH3grUWL4nvhthepJ2G1XI9vJ6uJhCLm14GAyn1TcNYueht02NdLJonmqJ2CvmJXzkTRD+xtJHJLL4Q9eQZOQRnONTn+N7845tp1A/vMSX9j+NxESBJ5ay1gwEBf+x4v0ieAnGDCtfS4b2JhN/5hvsn4/HFS6C+Zn475fZfsbX5VEYQKkLDFUG+3JVyWDWvof8O5QQBw6hhid6Nwl9mQu8MDGv0D5PcRVsbuTHh/nzGdH6Y+3dUF7XSVB2MNJaD+dQAO2nwHtXt6+0gfJ6t20H79wPD6Js8J+8gcud6e4oLRf3KXoskEF+MsiReeDfbnm4H66nuqhYK79hIvGy5OQQ6hSA9PPMVjO//a8E2MzX1/QLJ7qm4yzNTUG2jjwwwYpF1zONh+McM0/wU8CHWBHX/jKHaXsq1z99bvG6kd8CVT+G+lhK4KytUQlpFJwW8NehRL29g0YXE8qqMFcKqD32T/rH1Xikv6uEOEGjeobyZ7Ly5ZPV5cPwT7upcGlBahPm77lYy9B6+y+nsPfZVrwRJgwIx0SKDF9av1sfQ6rYiMNHD7ECWuO0KNJlO432qhnhrqIXpPw2etXwhtyqZkHtwu+KEeXjqRrjRvkwETfILn7skP/k3Gw0D0UNw7zlf0HtfJ/bkLulPX2BfvpAw4fQSj8pJew9dr5PT31Z8bw498NuubkkQ81sYpuc+v7A/jsaGVOg0eog+GIG9hPhiTbdYy9UefGAYeDKz81fi+MPx4tTMIDFa5YcY8tmwPwnLDoXC7iuTeyLWLfE+qT/xEfZAlXUeD0lLGGur8nvk+T66lNMoZx+BSfXpjPY86ngQf/uXhBBPKn+wlkRY2Dj5gLSQLV3hjNLfYjq3r4LMpph704fSqdSDAoUHwOvQzL6K79aNLSHGA8AuUd07sfjaANy9nwL+Mic8ZrwwPcCuZAOhBV4InyYXMN5PhGNhXv7y/D6LPLsI8jL2mvLA5BvSFXSoD3KS7GTp1YKXp0WTUiSxpqNskbLb/kuroZpOHnMZa7v8NrcMup0KfXY/X5P/oZ5yFP8qvG3Adb8Zy5qw8lejRdclO7TzHjR/+MqAXavtUZEQ0EvSpLHh/ZL9wT+As7/vheNJjYolUxpBr/QwvkrhfhtAO1oPptx3/2AAKK7nXv51f8Zb41AtsLGMiyOe/VcEFxDzcbHL+nX97J7deLyg3mH5gV4W6BFNLctJL766L/PC6rLDqRWpmuspAlhhD4HBNfxFeZfffb1pJ9K8EEEr5zNBqzZxsfEwgdQZmuc8V6/1fD3Lg8Yfd+vf66E9DQ5aDAQFk4qZRWbxrsJCs+RXiumu+aERxGcM4Yg4zn8juqfYS6fHKZOK4aQkueGOoYI9TvqChdQzw3DeONfTXsvEcJ8bMn4nxMMYW5Ln91aDWnJ0gfvMT7wyHuCLUO7i+EoUQCPu3+nYE+bl3bUnFedmx4SXv3EDFNvSaF7cr9OHNzCOfk8N8oeT/k4vvGjZx3HayCA5Pw4n3YSgo0X/gQJAAAAAAAEJMAAAAAFh4iHwhBpgRRTwb7N4+yrUXetc97vqL2DHcL3xlwbuV3li4caNbLdPm3ShYdrUdx+Wh96ZVenKhtXCOzhvGcLxED4gdPhf5t3UraTbuOuUrm4jPJd7soeM2SwS/CHJPEUo8lrvKhEjjzKUWqtgjhkQJ+Soj3VcnlakuPtoM5J2iGpX7VnuM4dWy25EXH/JY/wqEkOnUXDDFNpB9kCDLpFaH0x80famLv+4yOaeYjHWX0QcXhCL32LAJ7yeZ/QKcaBNIRWff0HqBP+0iNfWSOpbNHxkhfopWofJ92zGMEoaUz5zvk/pcIxiHX5ZsogjOFzZ+9B0myPm7h3vxLfwje++/fCPSGI6Ug3bX/j9/DqAHOvp8sbleTPLbjeWCbmhI4jy0g/xnjuXqwLrQZBJcBAQ5r5MM6zi+EpfXpkSEUfQmMA08deTic65ZUfHUyF9Fx1CppNy3BNqtxXCPINbyB3ay83OvC6kxPDT23pl+uH8MJ7IzAOpOqb19vX0dlRP6ywSX8I+Eeq4JGzfyBxKcthxW0JE9Un6muLnx92W3f0T3dMQwh5dfT8dGJZGo2+CHuZ24x9sQ7loyMJwy22eY1t6UrCHu4e1RcKwiFRf4zm7FNfMzHDgw3zT3GxwMBuLKXDKxZc8abEc7V21r/TqJ7BhHx93Io9El175oepnwhD2fiZ1EymO09069VhC8ilOG0XobxXnJ6fBLcpEgvoEwZ/Uwo3DNSVLYGsWvt+T33xvjgQQgtaZBYhI3gfesDURx//MP1+g/bCHleb/dJFevBH4fTspCln5KC6k+6SsMRtoUlw6wuuDAy2v4Q9rehdBeeEnkZ1VjfDUK2U588vwwhp7+uxaD9IdrPnJL3nnMc8FI8vfw72NwN2+FPCq1TjGR3Pr+wF8ZnzIo6XbvUnDAqgKyhgdhZeOUGDNBCHr5vG00glSHlWY43P6BZu1/Jhifj3w9fKt5Pe5HCW14da+w0uQfnzHBc/2Vayf5Xj8PxWLsYbvEqT8T2Bb9Ywoi/kJPrhbwR7lkDXuMznyqq+wH/FVoh7sT9SaPw+ktcngr1Cnx0AH3u/b/Sd1K8F/ngQl1/or8bh9UDDfHR95zO0R5BEiKMU6/M7WhPbHheeWGGnxFusE+ljY5eiv8IRu5o4Mj6LvGSqI6b3qH5R6V8CL2B//3MfY3/10LsfQKjyez3l+hXjeDzRoGwNkL5P/oP4d6ThRJsCjieqNJ+5NPV8LQF/X9AfxnHyD4ZRaiuAI+y+PDb8bjJkySkFTvIkLYHu5j6/QWGs1PcIyXfw2xUZs/uyebxygl7uYj7/cYj/kSTY+Gl0gN6U9drAepqYaa+9PZ/u8ZAUVZP5745w/lpjgko+JBeDjyf3bXwlT9o4grS8DWbkfwnrovS5uCDLQeZcN2/9TXmnX+LQRf1+wu7IghXooafMuD9uPHi59dEeEfa6djGwR3eT69xXjLo8cAi/jMdTHx0HAeqHtkVvR46Vv4n6ZbKow6i/K8Uwa17mJ63qr70hkm5sG3A0Q5EFM9Os1ZPb+xm43YhSFf6Kd+B2orcHdYed1eev9nX/FZfjkV9JUaeHeAIFRQegdgAfHyYKSabZcaa/YCw3quK4egG2BALGtACGdfJINwHUs9aoaHl2k30pIJfL5MnyKuM8eeZ4DKY1ojHE15Y1A5+0p6HVrb6W7qNi8s/l9OT9PwVx9wmBwwIep/aopGLPlkHZzEYBRq8XGQrWnhRGOpOw18Nx0bSsUGKNdl8EHEbm3Pj7XQS8wurrrxOOIOx9OnhEU8Q333iCe9brW7TBBywJLPC0/den7e4rCbhXmqP7pfKO9n78zJ2Y+hMjbMPIiN/dXhVX6slxDzzfFXkdRIyMFhb4L5Pv3mW4z2I6T5jORJ5PKX1E8bufqEBS9H5yTMvN3iSfVOnLfrCSOKKSKRWQnqM0DD3xY6v/6j3dCta5MieG7txsyXf4R1HbiuK93j6B7PUGpP8dE71GcT6yeD7hpo/Wouim5ciBOpdRN4S3LsvlExXfk4RijRySBAmAAAAAAAQkwAAAAAWHiQfARm6v8Xw/CBqD0D7l5bhQX7R+JpvhGOPpxiwxdXiUQEalqTI07zzvxkOIv4vLUNbQe/uS/BQ6hYFDagRfrwXaxN3BbMVlZ55P/x3YEAXDIa3rUvun4v4/jTQHm34HowglJXdHZWThDmmPL2QllBY7+8p4uoXbb5pQQZe0EIB93T/8v5o6jMtn+weNhY4euvR4TMwaZn/0OkaorSLdZzdfnxv/fqQpN+tcnn5inio+1++jXCENs694+ZdC9sSw+q8n7WRjLBq2WUCcXyqAhZ/oS5Xh9//ZGcjrwAW5If++T65Uev29Wwh7Mw+0lhtmu8Z0UqQ+XfnRmwvu/hDjY5PBLpN3RYog/T69RchB6/XqX3DT7Le/Tky3fbeaPDV+qcZGQVNuc1HGtPCDtyIGAtCG913R6ReRRd4Y4Rjcvi8ZV/WUZfvzSv7knUr1+EbUC6nY40k/odYw84S2vJCo3DKkxOuN1UJq4M6f7EhRyd2+KiOPr+Ong0P3E5k8ivOzI7j4X1Fb2vq/2Mw7O2ND5/vyB8I8LdYp99mybhfll8v77V+0JvvwFyuT/ezXd8n3nRoKPOQcJPc2x2xd6BNZLpcvTyekWJQ1i7yEGPMgnaoPsX6ZJ7tkqLxm7s/fM8vwk997zmkNm8aTGPIb2FAAhWMFdS0dMVkxuxhwtNx6+9MPbqerRR1qj/HEyb4mPMGKeWHU1o19GxcnkklbR6p/3uF9uBu0zWpjVybvk9WVcbqEz+b2MlIYgdFzPCzaFlLv/SJDbTL370qJxHJPwNCDLNvoiwr3+GFIMeKiX6X4f6sHgdQANXwnETejf+DGac5dKC6X84Yp+EL+Ax2PsOqLrgOBttsAcJFwJ+NFVB/csvTJei3IwYXWw+l3uMyF4a/XoGmUhAeseZSX7zVl468j6gj9N3+w/XGNwYJ0JVOZxEo+4FxcI4okR2wHk1/QJgUn1V0PluHN4eOTTauV4bS6C78nT7FciiOCS+F32Px0EJ2LxtBv8DX0z8XfnNHzvr4qFNVv902LW9XLq5hPuwGUAF2ZMM/agQP/FbqJo/HyvVl7712nQd0cPJ/iNzDiD/3VP/+T/rGbDv42ieyHRRVDQhVM4b4lnjJhAyv45k06T//B8vht8wSrUj/DSmLjJRXD+2e5eyjmbV68XzQInsCzt+2ks9Xh+SENJdfgD91ATozxwAyhL+3VoEHdu85Bf1/sEvuqE8eBR8aAwfuKvP/HfeP33GTxcokAPT0MqDCsCgLYhE95z3UbAvkMJHYCF+l6ZMjb+2S4hEYD+9bH9jI1L9B4YixKyVbakeZvdj/d4hVBSHxgm3DtXfjN0K8K0yXEEr3cdvDAbjY72Q1eM6lsvaq3XrXfnSjIxKr8vDqGCXF34/XKp40g5hfNSewhmbhd3lUR2ABqJ78dX5JVxv97oe9jiWFcxHlI6+wmvUTDEz/f99LqEe+9N97Vx2CmeV8OfZMHu78nlUpleT5aaxkBgl4T5podtBsQak4sf3v6axnIGdyK5E08YJrz8ZoxLCk/+4azUy8TurD0kXtFS+T3e1CMNz/R2/xxID6ESjzNEd5WENsHY5lpyjYy9PIEbUsdf58u+64T4yOrYo2mHo/GbgAw+vQ7mZ8QQZVJPp824d2X4hn+0yG8yfsOaYSoHzogjcqxCiofCAhzcVmrQQx6x3Y+Evmemo4tUlPJ91v1Gz+4zTvSJeXGzaH+0A/+Uv9BSf90HpBguI8J3p34+PBqhe6l/tyeQnah7sC46mF8PpYW95Fa+j8n3+Jnv977FVQw0SLtUeEjhcRm08LFnAtPGa7hXbZ55KActy+Ph0wnYGJtTtS7SyHIGyeO9w7piaNf+bDzFt8NZKSdjffhCxYfc2gj1DKgF9Zg46BWJuAv8heavtX0qW+M7hM4bE8ga44CiuCSMCl/V47lTwjat+7LrsZ8sx8EXYm4PsiEzDhfuNBmm7X8RVDptpRKeHiP44M7jyS2Eey8NOIdKbieqQng3VdB3jT8XRfXSIFirBY9CXQH0C+EY8vPqtYXXljNzIDaXO50gS97xseisEfDbmLITy59Eye9KmC/Dann7rT/vva4U9tGO5GQ/PSUZHBe2x7dDFYersn38569fvSWD5Nogzs+7BMjbUaWEiwtwFpCmlBseA4A+74cakpLhPs9fX9is6hlXz1tWiw3C7LWrzcUn3rQjxgSCs5462TGjWncaT7eRosvHkxnsJ46g50XDC35SObk+Jl8q9dk5fss2+2qDk6/Wv4X32QRhznHQVP1xOSM5Izj4afNLKQV773uRmCv31dwjsV7z4+N3ykpNCh8ToJT9deP4nm4wIYzGOAicVzQxAD3hhPPLuGN+4ZTVnr9F1vG89f2OCjxspDWpPDOf8vL5cE8ZjoOAv8cXH6ayLm2Dg/CUo0l3gQKBAAAAAAEJMAAAAAFh4mC8Jw5gqFuTagT6fTFuWUiRnr9hD3npLQOp/i0eU7Sp5m4Q8Z0PDaRE74amOVwRQvporkWVh/GU2EvxtIeyGch+wJv5YVx+0KaxkOIslLaluru6tvwYHq1aPswYGKaNL47U/wpo3MAoqOGAnLh/s3J5P10UfRrqnsuPEJzaH3v9xEVaBCPLeGPKgKOqbnbGW4UkbLvlNzn66R0lRaNI303Rsy8+aseD78tpB4IMpMJfO3vaH8ffT1++WA6+PhGH0/4tlPJEPV6jHUlYlQ3wN6iwqbJfaH0cMFdv90nDG/2v0G/J+tVXFXyZf6H6htr77HYVg1gWukl2EcZFB5bG/ageLdfyfwcnLML2l43ayQQHZvUbg97JqsI5SuGc6VNPpssE72jU38nu0TjMw3gmrupn9mfB33uXFQeOEffk/rcRIugIf3/fb8JacynvrTxBhnsG0O4+9OA73FF7178fnkgvHJ34+CBfi4ZhtqAy3ilYyho/xcU0sSfUKM7gWmX6i7NJmTCUS9RcXMQUvKQlH9S8PwxnFiuN4r3wD62cyZay3b7dcZHyf5GCmeEuBAu+jXhDYg3IVO64jSpY8VBQX9l5YRo7WopzUEpKjB/DKl3SRPT8tWq342bgl3yhgM+W2y/ZxMhBhC7lny5d/YnMomDAYGPJlecQvmrYzyhgmgGU+/vlYfGd4pdjr38YGQkNOpMf67+Nlw8mxOHeQXKIOzcL5hOSUcESNG5klq2rjMIGKKd+beHHUP8kpKc1xl4rHB2eUVFb5ObODfgRpDcK+cf0ghKQ3FPILjb+zHvB2Qn8XcIicquVTxugXXifDg0sNa/5hrTJZ+by/sO63mlzs19+lpm2o6WXi+40Efn1h2bIydbXCG/mTwKbfbtx3MgfOwYiVjrSphCt0g9Pl4aT6wf3r4JuYjzlwO29MyaXCldY0VSRlIV6R8yr4+1fl0DB3okfjZMvR7LoM3MEOavpKrtiC3JZ0nJTkeoYgfR3fGcqTg9TWdr7TMic32MpIadMn0Ynn/prQT/HQk/ZP4Xkiwh9DmXw9TNgbhQVStJWJh3VNcIjSIgPjcc+H5IoXGSEGkkf8ML4+X2P0VYT8ETeOXJPdW9X12FOPEkt4Jv5t+BU6HvRxAbu++sn304Q3twELVAS/mqwf7PNXf+T5diCMOXi7Pg+JYBQfozjXkOvvaBTi+aEbJUjZj8Hamtp42B9NWHGPfDgo8CSZJr2lKLYqZQu/ahAv9r+Ovp8dCU64cjfqPkn3+H+qOKoNnjQGAWzVijiAhm6UdqpLlfzDW7bGQzqi4NFnS8PLNgN2f2Pnlt26sZmXjR+5jR6VTTHwXFCbLo1cKDMjeAnwHMXn7sdf1X33xnQDlOYYlw6J3EcfhSWvHj+Npvhb2pJzGnUWv7F6CUkhtv+/URu7976Hbw8E+AB+gX8i/lSfBBxl9dTo6Fa3DclmvESvf1fdZtfxmjpzcxdtr8GAm3x+f5wjYO4TA7AZcf4+Y55pfDHeXYs/fodSpLGhRZDf97emMyKLYZl0dIpnqMCcJkRGGfZ8wu+Egki08DG0yDstR8L+YjxkTGvoveSJ8I3B+r4RYF7uRaQjMxOy/6uxvHxu+3jIDX4J2z9M1Lp/vvrk/vwpPOWNC+P54bEHZf6EH67+r0P2N3obtDggnNoaXUaBCIXnn8Y91obtosvRMf8f50V5tpxyvdMZ3ce2IfNMe8kUxnLEL46lqEHHnl+HIH8EPeyb/5JqxeQ6Gt0TpReUnmuzkv38IRs198+bHb8bGRP9YJjJrRA/l+9fMx/GRsYOpc8bgSNFx9aPlcKh14718QPJsH67GflyjfmPPp8t+Pv5CHNQyTtNoJwgZ7T+n6jfLgUad73FcV1+ywviqqI+E+j9Jf5OEe6efcaOv4/Mbr3O/5P17GewhoZGEfGxLKzp0LsjStDWHhD4QpdST0cNFI3gMr8xw7zQwPFbGctL4blxlCH7vfhHnKmDB51IbRfPzIZPtK6G1UwvsGnA2qTvYCFB3++h8Gs1YGTz4PGJtNFZIkNyIb+/Ut8fyvX9n8KW8s8fJSybSRXIy2660F/9LBS7HIq4RiFiFlMfctxXC+IrYzMf78aEEegfSMRfGczaKc0PDhyxc5jtyuMv4ZfqBshlKXykhprW4yuZuSfRRXVfjeAAEt2ZWo9urqM7gx7O+CbsP9NivPRgkLGcn+rcZXgEdwAAh1AeS09iDGBQxrTT9DY4dOV8OWH8qnHm5jGNwhfR+7ofsPdXPdcC9MXGux8QG3BcNeMm2HrVbB3xzhgM50BtFbmrQ/8Tsy/1abCwniJT4EvDQGL3deoLh2Wpmfx0gbv63JOriJ8/f/vxqcMaPoJ4BCNrrFn5vvT+Nw7FZumEbnIMgWfxCknIPQIOETBWqgeJaeiQ267EDgKN98HzlRcbML0XR+WrHR6Y6dWVLfsFHpS/l8ZfDK9ZVMtAO4qnTEwGSIb7WAcVI5dQwHe7oJx+7S8I3KWEywvXjLAnDEBT7hAgm2zVsJ/X0vfJ+64+acCGLsI3meH5TYtGEz92qauEfIM5Wjz7MQXCBQZtILYEteofvNXGu+A9D/ddBAZC83/CU2Ln91zn/ye8GvAynr9jwtfJ/PhsxYD16Y04YOS1/kjQEBImx3W0vo/xFbK/xd/GfW/v3MwuKn+k+fFwjjTx98dTd7dKovOdpvKJv0P9xsOnw+hKWpFoSFxoTvC/RB+K8Poa+gPyf3eKw5DKbRA8tyf39J7GQmYb+GrgaddHIaO7to1V3ffZYklyZlp1Gwo3d+ufl3oCyqy2QzmVRf/588A/ASffXzIPUW4LLc37wrpru8Id4ekjtJv3d1+n6jJ2LaY3e4F0vL9xnGEvzNrRsJYg/ol4r/glzoyiS8eC5JznVkCNzoH3/Hc+rtjrXml4artp6wmKy4L3Nw5yd2fvl4zjumYPkiRJwFJjZ0JzkXRCcWO9QsT+7/h7P35rzMOvrz8srBPLoY4IO3GTRm+x2313+MxMjyiwh7Gs3ZZchnZ67fxvdus3FVJv3MK7h7Gb9qwVo/Z/oQi2spdr0aq5hJJ8Mtyc/rKetf95HCU8kuHtiN9sZov2M+/Hp3kEBHDLf+JFOy3PfrLtZQyT+V5jSx+xEM6Hcak+7Nd5eXwi5OQmo7GgcEaAosRXvoziK4NAncuLy+eRaGhxHH44Zfbx0S9Ek/+z2HsXUCjTYGBAqIAAAAAAQkwAAAAAWHigPxMPVqJhjBAOJtBCKbiRSu4zLgfVvCsMbPn42CjeUVlhY42r91i+OlwjweCoi6/wj17PjujRAZPCJN1CHkmU3vSHRa/Ld0cEdFFpZ4Uj5yeUntAnhxNiFgLj4y0V6GdS3x1sIXo2q5TJeMDYhAEC+5w8QQAX1+M2+ozFoHiZDEvtRWRWj9I82N2UDgxyI35tZGdiLRoVu//DtXnqN567B89fS/j4bxSXF1rEN5byDV+PRfD9cwLofGov1/teL8MM0rxwcIVO8Wp5d1hCHmLcg+5hHkpdOMjQ4nEf4cGvIQuUTC6JvaBAbz1Zh5rOv1kjaif2aGyssNPB8qb5fEWOTMEC/z6sz+voF/GdWIZae/Jnd071Y+P5dx9xmTu70oo4R2uM3m3saxsMTiuY7jpUaSys+/whOGNWIF5BFpIhE/cNCs/I1kF8oICNkuW7p3ogRjVH7hlyh33zDBVl35PI2iyMZwn85wbhlQW8FotTcc5FD4HBkKHhu/cF/4yu8IDVPz8hR88qI0Jcf19idvr1sK+uTmyL/T1HXflu7237hT436Wf7qWhZNh5j4RqcYI8ppx0gfdJtPrEA6Nn8IdG3H+SCmMfr1F1XJTe3XrFClJg3DvoVgRfjTx0lgx8fglyNvDj/32kScqyk4Qu28v3e/xGn44PmvLD4U75gXuPg0KwPA74Cw0upUSnyf7LhD43AC64n+t1d8RJQE/n+34wMgfTNigXYn7cfjPDcl4+FK1EZAjCBaeg6v/BL9lrsl0T/7Jsi/swTcvdyLhUFu6n1OXt9XH73e9/eWCrqJfdfd6J+32FIyKThHicxiTajLnvgPwDuOh0OJYn++Gl+I21uz+QTp5LAFmX+UWo8w46pMmJA6HKtE4gdhGcmvevCThOoStVapcd4ZUwIuZ7R+2evyb3XNDUJaiX+sgPHeGSjZPtJiYRHVGvtqNUIfTPu4xRu80yR0KQxtXGCeXv98JBifUXRPtezXcP3U/ju8/bbvzbCd+Nr3fH7q/GAgP4bh2Js4b+r1GQ9egddNaZtWfQp9ygv6rgSXMnG0F2Kgr2L3GQiCmxI1PYc8gYz8gfSqVtMyiIYIrTQ5Ws/KK7VIcJ4TcojAf5zSWeIEjnkk3lJ/bkhDt8pieBP3Jxlr8bLQmNtylOc1uPzZk6jg5PCf55E8aseRLYlqEPLfYdPArjS0xCT3JtXbOfgg7CQ66FIYCNIOCG48yYEiajBnLauJH3TL9uyrsbQIUj/DGbkCFNXZ3knv11v4tuBAJE8Bu8x4xHTwC2D02FYXxtWXC04sjO/8YBFBDsBmxLft9VWvt9Hw0xKYP+n2qkNr4Vm05FaDE1/h3BYPnT8U49yfJjpjE6mYdvGCmosnsf3iY8VNMwcVNMzMv0++EZlHhSh74GtPXYPeJp8zaJJ45PLJ3GdEaEhwt/N0di4JW5+iT/LxsB9Z5/ygzDaArCyZKohZ/66p/73DEIcDfyLqNRxqLC4V/YPVkjdP6atof2Wo2PMpwI3rPP/Ta3GblAAEivAS7jJGbYRaX/KEIeQ44YsSXuNr2ePDsWTs8ZDUYC9RT453HfwvX2/4zzbFs59caFB/z0OIDXvxuC48BTmDCE1Ng4u3MghUgGAOpcteZdfR/oP/5YMCApEG74Fp6+OomwEbpexmVOmY/ZvUzWXNNLTJoMSy3TO0k84iCCnUe9R+BD7NOXzHvpB75hKFeaCs/qEPbLGO5lwSNNZ6431NcGa+xsez9MZfis/0CkL0U6v7EzVw5lrbuqBP+8n/P+wh7+u0vh/HRShqDyfA2EaT42tfX+P+l8aveMvT6jbCGtqqjyL9b6t9H5PX0x3Vjy9j5R7y/rY3Cdh+bDyH4Hcxr4R7/jYnMZB5uCW5GHEEQB3oo1XRY5il5P2mkUZCfE1Xz5VW+1DMif3MsMRG1TXOr1oZUF+4c8+UETtS4frQwAAXhwzpnDhsQYXwsOWahN1no1jyH+Oott+cSVwfWghHxCefukixP7V6+gj74eQs+H4Bb5P8gnkW4Rx48M3HMcsNgmau/dGXH3v/BTvayRDAvMF8yYey8LmjgJV8ZCXjnbWBzdebeyxJ5KooGJELREp98erCbh91zdy/hYI/J/6jMMu/QorpjfjPNeH+8O+aazwedzvyU0fS7Twh3mPjoTDIecldI4znPjJddveJJDX0l9/H9csIoP1MHyiD5RCOHZsLFaron/eCmHk9rWkpeXk9OmQ2DQxWggO11DuETYdZ5xr1uqf/cRQZvu++i0hN/e13k+ydsFPG62vmSl99q7J5J6eFYzkKdjP7YdOvmzyfp9jPvv7klHxkoEpzxty/gk2o7wiwJbt9dg/iJoNz/jIoaiCX0X8ZXR3/CJi/Sjb2nidvW6BfvEI8DkrBwNdh2EOduRKz+F//qf2S4blYfX99UMHBSg95TH3lSR0d7T+NzGWsWPGQx1/wudfl+gq/MH//utQoq3X005Vp+a4wd6i3CHuxEIWOZmnT7/CnOXTiT2eWufPq4yb4+k8fXhlqNrO6bVvfxt+dk8sw8WmGYpdSZ6dvha/+Mt+DHZB1PT98ZQGjjUjLjnrYQ1XBVVVh/uzaaoQMwIDX6lZw1+//Ood9F+w/3dBNNz4cTyWf6+HfOxU+uDHRIUREvzCdAcn1+NuTr0x2vIQTDv+SwzUwljbYgp8Mw8gPAe6B3+9aja0ffYEWhMs7nAa02EN9d/XnaWUuoeri7E9sCRhhf7D8PvbO6A2HCY0Z8EwgN2favQXb1GerBRQM6H2z/9WgYarulX0VbYyRDeZBlCAY0PrQ3c+RLWwQQHO5Mw55B1w/SDYor/O8LrjH4PXuDJBnJ6NeyBDOb+cQMaz7J9baQK8ecHTspDkYbl8Rr0Mmfj54trj798rV7uhntv3OGDlILNTorXQz46hBOxaLeQPTu2l7pVUJCr73Gd0GB5GvBrZhABmBtgG7AwKeSNLejcQmlrr6GUE2ak4fKuYbWPnzmRo3bZjlcn/bjfDl91BYwP/sMuvf/xx2GBhvQL8w0z/GZjJE6Rwzchccg7f6MaHbo1Y7XkMcAj1rS/ZPfXG6rvCc4cA3YtlkDWSoAAkayNOWh12CLG7kvrDd8zS+F5Q4aLFH659dui1+6PuOgd7th/fZX6tYOj+c2KtQRb/VBSWh2n8kEUairk6kaUf7iFicsSqYvCYrk34sV5RmQYxhpk+XFgQZAjDsvLgb6t/i9LYeIwgMpmverkWohm91zt8SXhtT4Q34Sf4DbDv/kZfXG4OyClQrLHLK5zFzl7v9lVyadFD3fDVc+SFf6fiPZ4ZtPmuFOQPjgCNcCQZ8e+ztDvHQRUYaivX1eJl0NWPB2fC9UBQSDt+P/q/1YuuxlemUtqV71m7FQ4S3ED6Zo4Zk/zKV9j+N+8CDJ5I74/mCNqX4191DaiB4C9b44eer9adf7CEcHV/NjhleJoAO/whv4/cYXCPgjD2PGT/w7Xl0aYPMoEPCb03yIbPg2YXVz+/lXV/gbxv5Vx4f3+kM9webE5Y3y3ELEIDvU6vE8nhwSWMhPrOFZF8JQkYEKrMAbSA0wvbmcfy+S2N3vv1nmPmPr9nyfdrYQkZTX30/wWR3J5DTerDfUeMjnv9z4K4+OHLfnOyhhlTm9hGOAvaBuzD63DC6sEGrCE/DjPvh+aP+Pstv3XR/S8duxGNQyi1LCeHCmPKi6CnYMEhxzLD5EP4RcM+IU/x6uG28d1moG1/LUjkUhBi5v8O7VTECyPsRzOFwvannT6atoPsP8O9BPEZkLR8SH/nSXf77NYH2P3wRjOqvazQ2bBL652LHZMtilxSxUWSfjNq+qTHu2XMet7G/eM51EibzYSsM+lpLtRgOKJEMZ8tgWgH5e0f47kRt75MdrdP21SNa3QS39zfuo/S7C+GqFiTjQlL+i+J7oe60QG6ugYfShtvD6/Y/o3RjT7pJRmVh9Lz9ox7+oU87ye7oy03td0K8X4yMEZJjX41BqEFqxuGQbjvhK3b3dxOwpXxn2/mZLK/quFO/slfvfv3H44bNr45tHJH639l2M90ysH1qPfc3t34yaMabEDApYUKLc/vYqOQfwhMZMkx4X6eGP/PSsnlODTZDBaPlnxnCAOarD1Qv4R0Tu3puOAqMAw3YSh6EzAw0gXXN93HadVSCF7Wrpc/LsEHvmi79frrgtvDMnfyQ1EE8UO8Gk9dfhBWJCASkX+NiPieM69X35UlE9TnlhI9v6/JfUYyGwt47eMy1jX+48nrSaOK26vGzL8RZF+/EE9vuSS0P76V+XkUKROvCd7y/7kv1wT3tc/TeTYi+8rHexCsB2gS5mOsn9RXBdpnhj4idUbVmstDh2euj+Xghp61FE+tbD9IYEQnyMvn+mvZ+aHwRzrqL2Grybg2fAd/llt/rLEZZeF+tibvr/PC+z1/shAp5eHfCjGP9XiOvr+hx3F+Np9+KRTWCmPUrmn+8VPURloVlj5fjeCTmy26iAhhlTRwg/d+sGkYiHKUdZb6vceTOMVKQdn3X6d8VAdqWv3+wvH8eddDfXX9YqmbzcdcV78ahOmH8JmqYJ2DjPopjbQhGdDJs/rpfCUo1TNgQK/AAAAAAEJMAAAAAFh4qBPwYeGdQ5Vqg4rUcJxcK+ET+JzfDgL4VPwpwTVpt76gn4JIyvmGNdS8YjXjOovZjcI8PLznEvF8cei0i7QwmHw6Jzc7IPGDRe7pZ0ncfmBASmOZWpInll7jLCRlp6p4d4iMKLy3Vm51BoSx0UJGbZ6sAAUokqJ3q+m/xnGRirA0TZ742BAokGg8JWdVeI6/Dc8YCR/A6vdbvIl3e4zoaEX729Kn/ePU5qxk0Fa/f8KY6ZBlFuOu0hkuvQLvDL97M9THbTQ0X8Xwh4fvl3ggDTwyraDUPHIiXPSnxdLd24F8BqCT0Y+ABAud5hOftwTFGCu43zokmj0xRijJDNpGe2kl44fDLF/LRhjOXWZ+pX4yNFyyVxeVmDZktJuvHg6IgssQgRvL6V2G/Dpv+NkFlumYATnFq0Ma7lqvoM+L76+enfHTtz4XthXvv3GeyhhC1wvH8sjyj0fncZTQou5nmjFOPssNQODCZrXJLC60h4YafoIQJW7fH6EEaHIQjS2BjwACaoEGk3AXHEm5knqL81BvLx1ZPD/XNcI3FYKU+TxZvwpIUiHdGojYoYtpjqwaMMT7V92k/KixfH0+NYQcp2gM3uyLvS/je6Y2Z8W+WKWvT9PbHy9rfNIcqq74y+zINFGO6cNz/Yl9mgMQ/sish/FW2FMwhL3WpGjX7MsBhxg6AT7jR5fq+YuO0dPhtwtAZsQah7eoQ9fj1QHRVq40+Dc4xL+L7p3jb//FzmI6Ywm/nFvBRQRzeMsX4w5V8X0KG5tBAHeOEuXREMaXQrDS7JmP8LTwg5Pj8TWDB/17mwh6V98IW9NFCEQpHHDuPskUx3fFiAW8sO/Cie/QVQLeXv3/2dX598FUfGKpQ2PcZSwUH0DxiGCLpr6BQ7tcdDY7CYVjQmdNHJkv2xfXA8DypqGjemuGvv6SKeuMnYXq/vOdfv4+t9zHAYVAA3Up1pvrsT81QpfKgGRlbSClnczQzyoSCJmzZf4R9ZFNh1X+z72QJeiHRYLtP8dip1UnffvZQxvfez/UlkCOVh5fn/tbYRx2O5Unv7Y28QEyWcAAK4FE+1gOkcaPR8ps1UDy+CKVpgL/X9RMeGFh2kyoUjPNLruu8QTckgqvr0iTiYY3kXE1DJyeV9KTRpFmoCrclgsUpcilNhBTl0+YIb0MMKZXA9Wz11oR3Qik6mJ9oXz9ub5OPv0Vd03okLlXvjLsvfvu9fpDYx3IeXsR03ftYwBwFYxcYGI1dAkEyiwAK1+v4QopTr09xNamCZAvUDqzHG1BA/I2u4iuwV6WhWJQzCQcX6cmvJ+c6Z7Pmix3aSGNiuXMJuV0zwFu5TuwxrPNUrs5K1yf/DStUpQle9301lF7jNPL3RPvpRnrDdl/yKKw1FvU8BJdFDDepPb9sISFrqDHDvG1h48F8Qb1nugNxP/bx2g8pRevmIj7lYQN054RCF1bgH957pXTKoOWePwPCVXLj5OaXPUkgWxQBjund57zVVj1mBWy2Pfr1/en0OmQB1BHmPK6rHjasO86/yfP+LlyZnf32eaL3HictqupZV1lhjcNM79xLnIv0qWWaXN5PdyNRm+bDZCLTKtqTccjfdodYuT8iE7D+bAgEOIgsb9iLnbHmlRcLbA7eldwerpZjp/pLG8MIVV5kVMwLoPMZ+pZzEGv6C+NifgqkmYCH3ATu0W9931qCJ1MmQon4w0vX8byDse7KjudxdwCW9/6Gn43qAAHODgSIvNluyuf5ntzdgwi3b1qBThO0bejgA3yH7fRY810OgdBPRCOMg1+l7o/AzwF56CjAr9hpPcfmbh7avBBFomUcBZqJty+SJVeIXA62MwN+R2U6Z5rkxmtC1kNErj3kQe68fGbFVLxNBUyWY1T3jQOLRSOrxKb0wQSsSbhIwfvKWEvzFP6iiK9ejvJG85McAenmpDAceGHrho9lo/c/QD6NJD1R4E6VTmjD2s0sKaW8amH09Sal2FXw78GuFDqtw8dZeMnOhVB//DEPoNorlYE2qw4XfdK+LsI2s3Bl/Op+GIyyaQSCtoGVn0RxxFWf7ruC16/mNdxvcBPvgKdehZruKYfwzamMr4F1XcbmtZnzK/YMwI9CONiZ/NHt4vCsY9hZXK0qOnU2WVrmz1wh9UF+l4344Rujbi46IJkN4DnxclVwUXvUywd6THP7L42W3ek8Adb/P/rtkA8Dh1ca8pwUj4ch4uMGGkb+12+E/YDGBYZPauP3rFzumF9kgKT/vDvGSjXgf79oIB9eK64PsYJkZGbqTZadi+P+MjxsQbHFU5G30UrutBC+NnFcZi3Jxg6ppsqyY+cr0yocuQPZj9TC71GPqwGPSWUClPuPXsZ+M9rvpZYwXcNy8Z3jYKNDx0TBtw689o9L8bpUVPcdS3siB8uVpTuCW0uONcdiKGGvzNq3n/Ffq9PrVUFu4YfMeS16r+/oXx/eOjied3rpvjYZv0nGqT5B2nmrsAF5xOfZEmUdJ6lUyQNfy+ZXodvYz0PIW5/puG5gf90iG1gIyPlB7+ZnyC5EsKWKV4DwN0lqWuwh7xE9LH573r4zFLQP42B22Ju01vIPT6yMlGYrX6a/X7G73xrSZJqDaent4m4xd4X5H8n++N54S0Ar5BcXA4FIlu2X3Qhf824GidHnnDSuyndV1Bj3Mcy66q+lwY/DMswtLUzjZ/wWY4MOWjMtiPDIqbfJ/1OH7FCSZDwTMn3rG1V55V1+tAu8mW4c8/oZO8Pcghn+vkFf34xKo8LgcbGh6f4X7UIQP+TMf+TOJ40dWonGDubCaH1M9z0gpV7gx9LugEPwMbBy/D3CV/+/jzho1c1z3X2X8PWIas8LhES/soJ2xVbgY/2UyPpgrnzd66V3+2da+MntKm4VvCHx0WY/uPRe3SC8yS0pn3r9/UbwG7cBatZ0BSFfDkD5FmC/MvoCoBoOrsIR0Fn+emmsbaPUZDCq/WUklM5UhRhwAh6Dzcn31jIf+ImfvobsXkbaDFeqGgoKagegTvvAd/2ejGob4fgdJ3Ru44z8n9eMso5MA2391//zQ4/cUKSzXVxdI2cVt3P4QK/hD1U7z/etJ99Y2sEpYfw3sbVb66B02uqg0HM/PVGm5Ymuvf5Poj2QKdUyczh5vF5o27wL1gSPjw0OtaKO5aDa2w4+PtxFpr8fneHPn+jpmH8gwf8mYfyDEDbCqtSDvacVm6EZvhZ+M+EN725+GK3+6UFcNXEakIRuFZjrDD6VLah9fCs1zwU3azPw5MfX6XZdHr5zHq43mbNrz4/X1/rJ/bnKXMnA+0xaTQ2NPpT+2sC2ljD2P13cv3q159+wYR7XA+HXcNUldBfZ/xsxMAFYEVLAPfrCE2D2X4ZQE1wH0WBH4XN6+h/xseHmihDqVDU4rrBASE2rvlIz8MxOqk3+UeOWBL3TyRu1D/uNxh1oZq9y3Usv9F434YXQiC6JRYaume76o3OwvVFX9UQgzgN38hthqysxkqFo+gHfnW9+y7GX5wkcWJIkKxsivC9/wjH6mA/5Di9VSDavCIrDtBQxkzDtP68MSL7GbjiDD2jRxM3v1NUqzodGh2NCByLvY2W8xOiftt2CuZFQhgHAkReDGbX9WcOXsZf587XGVZemM3vvvLkyJj9wj3vnsbIW8VHR4+N1h9PJjHl4T9YPReiNCiSGj0cqoMe86M76CQOuo2py1g9+14fYMruocfS824eMo+/t6Lx1/b0ZwwN1A+tZfYz048ZcdSP9Pxvjr5bAJ2D5la6dBsyYP/GkmSQ5q4e4WEWEojNw7cr/ItdY2twtLmGY7rjp8OLfG7LGNhQTTTcYHfmtgShFnCDqHf/RX1R7aCjTr4fD/62h/Cfr2BupQ+jTPpfahgPhSRPstKva1c4DZ6plA6nGtT9+sB4CZs//b67szYX4Xl9M+MVTW19sZxLGU0MbFbz9dvjBw6rvYXjq2WxFsc3+a/gsxg4vmEElRqM1aa9Z5374zrqkxg/5OPqqTGjpmLgwxmauEKDODCwZK9mZw6KSEFff2qQLK890agSLqWuLGaRQ2T6kSRxnhx1GgLzPludNDs9mrCa2MnlJqoUnFcPNyw4kKRONqk+342elYhPrXjPesErlODZowXq1RhKzYyz6spIl32N6EEV4m5KhY7+6W6vQpGxhfIpPTEie+K26maag3/ymtxnk6EApF0hI7eFmxTdQBjOVTHs5kaA68ERVgKrk/9xshbOXlmHmNe/fpcD4v5KZE/eZpsDcl+U0eLKAKQ/w/0l0/yff0NoGELC/gy8NTnMcrRCb1GCBu+yoCCs6D/4zG/MOiYGb99jGrggbgQTuXY8zYO9kz6rMzOHZ0n9VY3iADGxVz+pj4Ds3f8735SYFqOxu1ccPOOVUpOfuL2alR4IV+uzdctQmIwdXY529PsV01cV0aBivsOmZOnHBAZNGGqf0IINwbtQ/IHl4QHM2FgRL7kDIzqO7JznMuXdZHBE2nzhBvCMP5Bh/IPSqkxqkxhfMOzr7322P4y/zhAEhJ9MJGB3gUd/AXLVQOjc3QGw0eNshmGVhAiXWKnhai/M9mv/g13eB/vYf6DaA0yDAUTUB7/AIXee/hkx+YXr9MThGZj7ghmeFtUT02NbD118BPlqwQmojWy5rrvovwp77taXd9a7CNG9jT+M07vGWT6T8XIcXlYfJLduHpTe/787eKn7fXjMfFYCXTOzGCCEFoDT56GsO3ohfhx/OiTD0GtTw3ZoT9e2342An3f1V2WmNsa4DFXOKx284YI3r51TZq8eLQLmGeT6vobpQlbXZgTtXvj4BK4OMVuPhbDzUP9juySNwasvT+xtaajuhqN8B5Z2jVAb//VOMNoFZi9D+8gzSFEy4TrCa5vtTsWNqIH6+jt/KW1IAAhOwOBqRcZ7wyitg62nW7k3BM0/MJbgjWz//MbXwb6QWzqdP4+3o3Uc99eN5hfvmHe59PuiPoGYBWP0HfB/1n7N+Y1suA33kE+Uj3+VSD9CX8OYe+x1exRKpybSC+gpHzxrUx9yJ9qZAbt2hQ0I5j/vju3Ens+k5D8d64Dc1jhrbDx9Oniatc9zPqv4SmzSreuH/b085MxdFZMP9vbG9j3LH+PXZEvd/T14ILDI0bUmTcJeX2vjzRdfo/cKdQ9JY06v+vbKuGp/rMeMwC8UvzpDJcCL/4rgVEsG0CX92JfmzLYHyWJnof340hXMJ485Elx4WmKTcO8o4Z69/oNeCbzV+e5/EkIUuP36/8b8fTW2Uxl++NyEcuj2QNGDny/r8bsSkElsDmKy4mWZjqYw8M9bA18yJb0/8baMH86S8scP3WzvZT/+NqtNNzmhqKvCBzlb5nMHq/+T+i3D3AfbP/eULi84qaugMEP7rwn3AMv0Vf6+N2q+V1j/+vecfP6+tl38A7k2X2e9n+ez6zu0q4eYwEuw1oWKjb//A/43z2NINUg8rTfTrE6Hemm41+h4V4vw44MzggDt1miMNamGkNJwBKfdVcEN734Rv3dwSyjzrfNTJ+1qDC81ysHs+a9P+hmwLUXTdnfW9XVo5oyOB+T+tMKdrVAUJm4Mka9KGm4wa3Rs4By/XEIY95jpjfTS7pMWHd9TidqvJv/dzGJ/lbr+3XFfMijKVSyUrjasE/xkER4zSaB8wkYJPytX7Jl8ZD3n/j6Xnl5YeELWqLbDY5zFj6CPmOImrx3Jmae43T9T/Vkw/RiU7YndSEDeCA9xR/+Lxt93DyNBZNpsZBgiBRNCs3Ek/ECdQj49DcE+wDsA1kACfwPnuOmN+nSR/hH3591k4/d9/J99L+6Qyusvb6ulbX4jG6+vxm597vevl/ggp9v+69/XD8cB5Yu0MBRSllNtX9smr5Zr8h6/Rfj7pPRP9rrSRSfCHdN7W/J6uxSj5Y+NDL48Mo8JJSLH/Gdh/2GEnAHeNXesEf18B+gtIka8TYGBt/lX+JwzEc2EXDjB0cneQo+NurG3JDYZiZ+M5X/PxnN/VfvacW19Vofv93vb7GeRbD90H4+eez+U9fv3Sjo2vtjNU9zZ9hSXn15T7r9+qmPljNLIjM+J/J9ZT2fsqysqL7G+Hbn7DIe16a/9Nfs1+XjY4s+HcU8QsSEB3joIRKkJf1YGAgjeVfn6GTcVHtVB/ex/whu7YcQpFabo6/hHp66z5rZRVxrH5mPBf0pUt54nX9quFN/ka3mYHcPZ+xRPPmywWedDv2Me0fbPhbahsZTMGge1r/0CG52Nl0wU33p6/L0C2OXHpfa3+KmYfL376Clun3SfI2MqZu4tlwV8JGJ3P7bd9ygkJ7ZqjTK1Yd8ORBP/oV4TOHIMEAeUpTqDHUnBfOzmfvl711YsE3vivzLbNPr5NjvG6xjO9uvNn97by8ZjuOzE5WJte5Y3pHwvP1+TF1/tB7X6m/NBe/yfesy5ej2LOtHTsn+RlCRPcXx2Ophn9Y6g0KkZhKh2kNnL/D2R9j6SDGhFYDIH14xfmHfxPvp3qYhIhsfQKtvIl3KxO8nGeWhe5+eG3p1qsZyvjJjw4uR3/Dsj1eHdenxq7fCeXrrG8I4yICWSm53L3+87BrzXfJyR8FPOCCvd9h6mktv3M/O2x1ovsvBX0yY/8dx3w7aKxe+OG7fGvsvJ/KNGWEb49NbUyXd3wWayZLntbJOEKu/eaeno4zS333SP/cnCl+gz+NiEfuVcRFfrUaq5z5sS4dXr4vKv7SXjeqjhsi+9Pr9luNy8JV6pk/4KLsnKx3YeEPKwt3ddbCl97fivzSZ8Fed4ybHCmdgsbvu29DNY1CLGPZCRqdn0jYfkDKYdrPDMj7f2Ovs6svBDvd4qUhsvk6eHc0M5WDGn8JbxuP5YUUyPLiLc4mCa9FYt/3w7796DceNq1/XDveve2OGe/1618EGhyJKTGxzoBoa9f6pReL3206iGH2Qoru/e6aGYa5lBtX3bz7voVghaYrnxd8CbcB/Xr/ri7HCFtL3m0HMsNe/+CnbIa3kYrQAPvBQyRZXLk4Kb9PTww+VDQd8fywfNsP979bHzQ7uZi6d9hcF0I85AWXbXWXN73obuViD6pdjGhAY+v9OhAaw3yCCw1W3/xWbzevAo1HlgQLfAAAAAAEJMAAAAAFh4sBPFxlWgnFE0K4IocziuQU8FR+yfwc04vtWcMz6p19Gou5akDb9K8T/c6QkGUVeI3CHf0In3e8NClxXErcZszAgHLq+lul8ZMrkafZhHpODQyHAMAQcQQISY4CHkJX5MrFEtyfX4ybMHqB30HevCCr+pFeyDMXefPvWqMU9LrSy+UXTLgQ2EOTvp1uUIjol/dM9eT32mx9tkpWslVBym5I29pH+LWWg17WT/KrD1PjuYJd2B3nf7mMp1Mo0v9hr7f3Gbh1TPICvxoePHhhWHN+3CYrLgzfcZOYxhqoHWPlW1GgXkNCV8yHfk+yMloZ5SRCEvGZWmuNe/AWei44C3rpgb/kehqwSvXr4yO2gQtfB+GoB9XHyy9F40mTnAC2UIX/OZ9D7jF77j+Ahbbv6N/bKdBGQQG8/647jIXW0CXPCVxhtiiS6cuDY+M5hU4yOjWjggq+J6hnzSX5/pEUIeEngkYhXteA0YWTLI2x/EbPwfDGKFPLUXyJC0g2/FIPZKhHLcf8bXcys6fTIJbmdKbhdUnp1TQyOjI0F7YA96uRyFiXoroiteB3SlnQZQPpdd957tT0wN5yLIHBsoPp/9z3P9O02h1En+d5unJuSCnu+13Sfbr8Z48PfUm/vEBXbYcT2Rt6/uMkOLgZ7Dm9B78AQtNcYAJUBZ3o6sXDuIjoqadIFfuDAe8gh+FIMwYg+Oa1Fx1pNFYXknzMyXuLg6eA6ePx+A1PycH5pFQWuWLk6WEifZM/OJtSkvuXvDGhWCPoCfTGPDBegc3ykeRUAj//J6iaV3s9fP+qi+6dO97LTXCVfY357XjJzodo59Swz/8ZHIUxblGNi+VPDRRN3jIRcljOEW2gyFTQrcntqX6CD9MbBKeGAlwxcN3M0532bZtfEZRHKIEL2QJNCxqZ6LPEI8kOiA+F+O83DEovXln+Kx02/n8n3lKmKzxCFw/z99OWy3v4j3CblNGqXb6GXKN8jWaYfMHaEA/sbF/YYED+Oe3jrxSHlrVw233d3iV+IJ5vnCN/u99cTfs5ncZGPDJP0uUfkfh1jNZcux04dWxFD/fj17uCu/5aU/ucl2IyfSEMsHAnly5/yezlPNIFMD+OFgYCSwT4QSmGK039w07z+WbNXQJujBDrE5CdwbcFUzkeHzae+k09E42bsL7CFMPu88dp/q022H9/u97+vqJN0W77WXphPvvfsFMO86wdv8hcdIx0AjFhhF5Wyem+oQwq+mZ6mRZ9CB/zLtwBwHsKSahQVzaGyxy7btx+htyf5bKFH/rIyta/ajGEvMi5I5IR97jL7G+Pp4DAf1L2RKEOal3t+aGpN3rhGEveONgXHgqvqQV/ljPjoan8SkFS3qqYm7ixtcEFa2Wn84W61TvCExBrbmV28BEMtTRsr8bdWJINKZkEi2IyzhrOB7mmWJzJW6aOcPKC4mnJxVaYSrtf6jd9OCb5dLFKvSR2NTIbbOKjN+bgAD6PeVuCDknmwRbR+gKusDNTytpD1vQvhD0EyXgAHAjHhRegdk/l6DflG1/RMgrsJe5c6XQnrw47oifNLjQjvfu5qPyfzeNkRDtKJGuO7c6K4y8xU4dnX9C1TjbhBr48HVhpjuyde+t4QBgttZgcAQtwt+fh1arzYBsxm6uA/fpoWyPSm8KY2QqwIKa8XcD39Gff4c/aMYhg/fGyeVDPjYk9aviwZYb6o8pmjxv5bXmbR74dn3EDAmWpy09vyfpNlY2Af3z0LSqYk0UC7VlhcBw3WD6QlWq8bXAyN8i2iRNHyf7bOtVjfEv4Df/31rD2urQvczt9OH/3AId1XnDuOKTA2TfnDoKWSQz+hf0SAvBBt1BG3dWQAFq0AJgAMskv/2YuHbBfwBo90h3mx22/8bGQv26QiewPo4DKaQJr597BAPoud0iBAoMN1fWCZWg8bNziWQMb8bHWPKCKFEhEcMbB2hHh7kkbleoFS82oH6xWRBt+qY2XU2p2KpIJ9rtvG8pW/bQAHFXKoaXfiGW5yzjvsMqiRvSY2JBf0B5P/bG0Mlky4+cdgCl8Om8JxqOO6/ErcscioKUdvAH6l3gjrH29tyvGioPODv/Te+SNzYx7eMFrV4d3E4eYr4ECRa2no/s4ENpB/sQqFd1m0D4baLopYzBn5PT0O8M7lIw3TemlQ7i+OmhqLxMIGD5/lCPQ1oIVouc6aXjHsLrnBL0Q90N3eG6hDOvQLOXOsbGi8g4aRaRqfY32F3l7Bm7vr+9FYTM7761SYPvpzf6g8QYaoe/D3QH0Lrw70QeAXe1nhHJG7+z+SO37iRil7gp+7lY299uo22KTeTw7f+AfxdCQbPor3COv80Fy898ribUZd+vof8Pb/0T0CowzDnlXCmoF78VDBHgAENanGBgGrLh7969Oit1WN/25y/3srpHiEb7r6FsvgqmJh22usDQ7jT2OnQ6RdD+1jg7enmigY2SxDtpi7xtWvkRTf/QkDTaD+CBWmaFl5g0Wb71ZZ5ZOjegIN2RuwDmTfI70awXj4+zgkN9+H+vu89CPJPYGAqLmi8FO/y/8jEMUzzqpfE+xfnqKt8FOaOiiXe4aSi9u5CEMOSGwf4nLqXYzY5cjkrnv960EIQ8vL9PCZtaSO8BE7pf5P6g2wQSs1sH+CsEGvMAEg/F8DiJ7il9FSJjd2Dkr0xauNgvsD54+ufru1v44SZ/6AjXbMun/v4IPPTLY6FuMC87X9ulJgp6cqTi0ne2T0SlxvM0fBa2+Qdj/QXhKV1WohAPtn+pOBFHf09h7Nfrm3r+2wr8Zxte4MwzT7x2MrwKB0HLusbAoumBu4W8RjpYH629rzsNF+zoXwwH88RUnZvQdLpB6WV8/CGmlrH4E7ZP06ahzEJNPL+L+x/Gwl43P0FZ/wOkYHWRIUMCEb+i+7L0W6YgWjXiz1PgLVRK9hV4vB/hJhXtwvKx7rG1o8Jpg2ndYfsteMYqQ8T5tSUpbY7VufnNiNmOPjeOnX65P03xnDj+QfK76XLILZG7FZA0NsYDj0Ohrvw4inf1WO7zgQtAlKG1GLwP38cN0n98c6jdfGUG58K+FLy0+DUIU6Qz1goto+PJNGi9C5fv4U9142vGe197Ph3evo0+j7tpX9/w7F8G5JNV8f0Gf9+5p7f8fMdNLg7p6cZpaxtm5c7nr+7VqQx6/v8fA4+WIw0f9vB76WKnL+fSbpWQPyDoz27I+/kMYS7/q+j9KijaYKIXR4Djoqjt09eJWqGtBuzhnOcnUnceYNpXZr/fxnCJ3MPfOPCgv3XjzqvnbyQvGOpOGq9DsKSTz5K3f8PF/eT3V0x30ew0cMDNyGs78Aw6LA7G6PtoksXQfw2n3OReMj+qC73RxTLzGB2UGd1Ujv79wxuuO6Ky2xnJnv4ntI6vt1C3Mh9cvv3UJ4G+Pn26A/jc9HtsHYfT3CTO2mC8r4+/U0H7Mzj9mJZ1pVc71foPt3CEM3SPpE++A7qLWo0XOYerwawf2LkeLyk3BvSypKR1COHyFQh+S87ulMjCYZQtieWdhEOwN0jaiAU8clXddDK8Hpv4mPzB4EgjWKGGH4MzYpiFvEvZLT/Dp4fkPWDjk/rxvySLRfNK3AntfV94zT3W1mnTrXMRD3qFrmtmXoBSgd53Va+327rAz+nbzlhQ0Iwv6DOqk/faCl7lVggvLam4bW4h+rnv7qVRhBy8zYWJXCkgMx4PPcOQw6E7Xcrx0YD/mEJhEhtsfHwD4foKcCF/NF+xceqm2peQ/6aFaFBXJulWE8+9ipKoJe8YTHjoonEn6bcgzpGe+467pUtLHxcNfNLHf29Afi+tJCKGBUPnxF8cew2lhG7u7sdX343mEeht+oEVl+BLaO+Pn3uGSNg+eNjk7DIfZS/R+o3J2KErYf42GDgfpMCbm9KwELYEfF3N+MzWtFSZ3vw//+wwFvy40v9Byf1qMjH3GOiNqfwH/u7x44bRAepB4Bj/rLATPgHw8Mz/PD/GCB7je1IyRL1d1ER5x40LXuFWI7aIXWpXdCNdLGrlVfsvxsJcS3ci7KNsedMg70Uq7ch5Aaedu0EI9CtEBITw93Dgs0zRbIvzqTC927rL/a8bbq+A3nFTBnwXdYY4SPFuw21DNOqotWq+nwxM/w4LvAPjnCoZB+jDf37W4hfckO/14FPryDaT/L6pdFjjNl9DpK7WsdgMb19H+FkFS+tv09zb1u1Xc8b/4T/ZQ1u3YZ7i5IR0oLvyfwfS4R40hfRXeIfD6tEjs3qbfwT4yOmxWwZD8qYOJas9JxdY3lGHCZ3eWAU1e+dpL/vErKORHjf5WUt/YXSif1CdL/GwX7pMs+JfrggjYS3ARK1nphDiPtJyLWv6XQUpdL9LJg8YcV4Q3k+N09nzXX60xs24G6Q9L/NxB1RoZ3RYL45EgPw52do2dksc7bbshpWEvj1/tSfr2N1eUwPazk2BIRxKfkbbzaqQdAsULwEYnEMIVqIT2g/7rGcFdiCCGjwIru4W6mS8BcnZ3ToByHprBdcE3kOibFvJ/1jY0UD3/uWN1CTWr+W1a8f59lCD5gxXGBszYE9ni88RCvqJ9ib0Vf3VhD2pJhYgfTA2iqG/7COcAjYKbh0gYCMwRXAP+vlisTQeYCx/39zDfz4tiegLnW+GA7VgspkE7WCHqHfrd2sQoSvO/wTUP8B7vIv4fhnA3fXffJfa4QF5caaHtLyx0HL9Vh3yDEjPn/SwABr8r/sOEGDvX6fadvlNbfhT04yOila49LzanLDwSSbe3sd74OHJOMGOJ+Ad+FKb5MfuQIp0X0qE/GiKEr9HebZGjtuwZPZfxnspEAROC2j8JsC/wB67rPvPn7AdDsQrQQRWZ+NnyrAAIF9hh/Uxev9hXHg3q7e7+38bOyxUx3B5mZ0HHhTuDOUG1q0XsvYKY+MFUeaA158tB5iyR3dD+9gp49C97G5WjQgmbPGmqNj4U9lQIjYdhh2ve58bcP596n8xsDbajP6+Ed+rBUzgya5j8c5vDEdM/9bjaT8v4jJXcfs5RmGuEKfV8V5t6mAYrVC/z9+qg2exoLhyW+/J9TN2ev2PEC8KirS4ZiGcmEfPPhxqQ7leMIJ6juEKngzkIf3M7S6QKsol6kXy88Nz4UzpORbvxhNkXY+WsbXGasxJ04dO7F+zRio3M0PY1okFEaYGD3+JCvywsGPqsZxVqH7Tzql02YthMvei/MPb+O73vtAu3jeL3xDx/rMzw+sru/gpp86+eOxSfvQ3f9jj3+kSObYOvyPslfqev9/GyQ4fT1KobXFlMclhMvAlYNLvbr8bRMt9T79Fhq9fN+ApoIdsrPR+MFPinn7lhVib1NCFe/tfgm2145W0y1KsFMCT0n/n+PiE87PhG5c2D4dk7cbL1TG8uv2WriZ8t5WL+8wx/G75jFUNRhAUiLcZDmVb2iuhq/Lv/xu0G5jMHHYm0GgAB/pnMSIVJ9Uvr/C3OGSsd6/rCXEYRuBAZ9PiIzh/fPJe75ez7/wp66fem5Yvkx8E2tEQ8xucbqryhW8+9zQXr5OEdy7+uMYf8bkqvnW7lheirRL6KT2/w945LZkbp2HGjLWy/2z1f+lDsRCuj17/4f1wyiE+d/X+miexd0iC8fX77TWDDPj7G+v7a1KEPx+fPnYdkmNztiODCXn/PTX+/R6sWSi9c291aNpXLWbgnw0pnf6kfAgS8J8rrHvJ7fKc57rPmnZzKykH+X5/tPm4S58t2r0FO8ujOfLRvteM+J93pxoHiXZq8SuhO5frTim3gn85CGoWulS4PFfBPN3TpJ3gpFJrXNq4WutNJPXX5OEczHz718ZbJu/p79cf7crO42Jx/o9x7LcbxW84gOOjQ+ZaqDYDrEcmEHK5UBARUUQIhOy77+EfLne+yfHQnaXx/T7Z80i1Jxm8+bdP96J7LVehGw3HL29L85IfGcI2mN8E74d/3EDVFfTIvl4nfvcToTOsRI/zr5whF6HTLleH4glu+yNfhDGJsYExftaqL4R7zeuntP9QQ0XvFvwhOovf7yMPz/ib/hlB+BOJU2LjPYsoY2Fh+f6XyS1eQnjfEMouve7+PyenfvcmSuG5tvXY99HUvgo0dDgQMAAAAAAAEJMAAAAAFh4uC88PYCFtwT26VpBHfytkVjTf/H6QYRT9aAqYMDXw5GdD4ZQZbCSsrOssZ1gxNSkgSfLTf399O4+ovxpo7RJ9ZGMqXLj48XFow56baE77+WUxC7fSjxPCGXr6GWY1sk9hM2EtIg4ElYA/49aIGwx/4/mBVbEAyAAe+fa79O5WEZTdHNSMNeUb8pXCdxmX4eeiapxcaLr4w3w/T47GyyHy0YXyD0AUTRWMq2+rcvCHxoYdLnX4bZ12vk/3xe+/3F77lMdXF3H1e8ue8MLs0v73250li5284IBON+oTjwPfwyhDqZKAY+AAJOIteGWl66hdcpI1X9b7d3XprYi48KP+/ifDEM2vTN8nEzqXYgyKZH7EJOTgL5b81u3+T2+6GeG2Ze3Mg+Yf/Fz+993khfdE9lS6ilqEb8XGBEm7EW8w/J7y7hDAh/i11wfHgmDgt1Hw//KSRkckcJtZlNOmF9ieNJjR0zCz3+Nu0UvghF6fnRukW6Wxd6RP+DnJXA5c0DOz/fl61rbuEPblYe3Od7fCHIQSU1h1PoDN7uIf7lvyz0iJHauMifxP8iggIAgxJBlFIIwJmcBvWObXgaIhcZP0ksZFMOG6TfwYoO/zqKij/0C9o2Q+m5BeT9cn3+EKA50w+p+jzhAZFeGUWG3UUMw4qt8/2OVdqrwvxNzEGMmOvGKIn3kNnr+i7jI2ea6zx8WWT3e76e6KK4HgKrGiNp6nj/jecYI+bQGtYzoYHLr+qs2M36/YD/HzqK2Ge8gKRr4PVSw8AxpHb8y5RmiLDsfg1Dcgbc4vz8289HgM9ijBL54H3X0vb4YjIa3yVicASql2ex4yEBUG+QzTL28dDRqvTF9kMLoObLPAP+N0sifwMcrrHHc1NUNvfA4yJZjHHTZ/vr9BeSNhV8Z+0NU9dxrioGdLyyfxutxV4ODPX7f4zQNacMaC2gT7dIvsYx96gHRPDNb1GA6rTKrCnVS4mYYEhYAK/scGjxgdf2Bj7R24pjxLQtBNp5n9FHz21u8ddisHBzVgHEdqXlMgPAd951nZH0MvxpMlY3uZgdtB3E4XXGjucEj370FM763tEUFWvHAuo+jJ0RLWAkFDQO+9aaodtPZJwpbw4fNXnXI9rLzzpjvcNYROHFGx6t+d9Xf4IPldVD7uCyEjOtPg7Hgfa2p+IH45KLvl/r4d6pfB9rgLr+vtf3CR7pHpj/Fa1MVdiPfhxTJPVrUbylmKGZzJ4kDbcB9L3nl7hEBeYr+SynSYgtMPAf9n+WEGJzmXsPhlJs9cgrG0xWnnnU/E2N8MxdvZdvsZh20FjK2nzX4cpveohfPfFTtEOtdzW7MrAR8I3qGA3th+ejDym34lSC2CPhM4PQol/pon3L1ZPSdJQnDynuRNH9/4+BCQvSOk/bbr4Rzkxgy4BzjVChrhkDP5P6WhlfALyToRC5640Pm0HrzB35Ib8/x8nXLyNfFqKnA/BnVwBfjeGobevBARtF1AgOpBR4OoDipCvrB9r2X3eMx04WiHhrNG1V52FwhOSKpP38J38PqywiuKsU6idRYoXz13I8Pxfn+TngWL2NsnBB5nX/CsD6qucoIvYOP8tQV186L+5S/bywlxN7NJfv6QVhur+pf/N0/nMeqTC6C/Hwh0wv+y+UMBnhEP8Zm0lezTyZZlmG45TYp3fzpIQPZ5PuqoZHRQXbw06f8eKC7EuvGDh4bTqKqUdvnX+UMBol223xUHZTFRQO2g3qoXyyE+XWpCf34z3hoQtQkYqa/oSKL9sKqS2ataTYQtxjDSXlnj5aKAGtwACXE+xXhC2/JQwfPxgHTx3bnmU32Y9J+/jb6h2J1QWpYd15sxwGHCPDrQHWhgNJFJa9AL5P0nwh2MiBa4f+8QEeH0N1a0fvtiYwd+99JDHFcHdRE/N4XyyW5H4zjYTNq6aXUUaMuC+NynXoyUsrxnI68f7zWQCN44uJXH0yBTLp6PPjF/x81cHwXmNsD12Lk/vSCGQAMMreKnwTc9dsHrBbdYzDFCyTi/MINCfBNoD6uIKf429rIpB3dcj6bhhGe0BLt1MdEHh1nfthiB26+z8n7vQm92qcH3vip1E6jvFCnjcvzeEzjw/hHhWfrhn7rRATdwIx79ruqjN8JOG3PWAZrwNyZ1A2DKn3C0tD6gTN/znO/f/HeNhsUB/6Cc4M/uvdNF2O+FuAQt13z/R24Biw00iqhl0H/kCU6idRvhd3l4y36b8jvBR3fOgsFzeNI5P6XFeMgNxK9rSOB969jIahy82uwnb899EB357+K8fQq8i3pa6E6Xt95Pv7on++KjgZ066za/v4Qrkw4ICbMKf4wgzzH7/xU6i8Zxt8OP6rk/9QQaoA+0MB5FMdaNr+l3fDq3I6eu+viK+HVI/cE24ErZZPDCuYQ2rgIagx2Kvu1HwUMu4I+T4QanArlJAiQ7iRT0T7/E7XjBYVwYCe8XCjRdeBAyEAAAAAAQkwAAAAAWHjAfARlP3TfN2yD23BHl965AjGQofIZDOaDogvx+km5EtlP3xmqhFgcFZFeYmGbeyEjvEkQm6+JZf2LAJnQQNfiKjJhyJVEK4syvY+GhlkQy2glVQMnN2xtMe2n7YzjkSGf6NMn+mDWvLJc9Br2V13lKLj8igXfggWjk7hqfWvEdIMte/UZl7lwY20eCZtkseJKUQcwKOlxCA6gAHrodDc+iJfWv3m+MR3f7BDTaf/sVa2mojf4bzTJ5F2Uo73lQ8uQzlB95TaaXJ9NU0O9MGMFkweezErWZQO/Q47/bu0PAOoAAaY8u/LlJ5XqkLwdyWSnk/8pQjx5w7v8apggvOiE9nLj5kPaSHwXH4yTFJf02UJ8eE8wXUApMZg+Pi5sO2Xap7J5r1Xoho+c/8TDCmuWcqDDu7vJWyftq2K3fu/flLESXDnimkkLrUyThtiQeX+j1+/RVeTyc8MQUeNtBO/Yl4vwkeDcODzeQR93LA9py1di+HNMt5CD8ZUwcnqPCA+t9skhOILvWHk0m5AN0rrGQozgk3/iv/HyxIvrpUfanT+MkJuU+tBiUoNPDO9rH64dXYY42FCJfaH7PM+1xcK/kYye50pIShyG0rwgZb6FBaKnGQd3zXJuLBMlU4eh7aKkvuuTxSMisSx8BrvnqYqFL1Rkuc7wAguhW3U/f7n/pUxl/94Ace79xUZgytv7ws4ttwfVFggMl1ytlUMcHVI+QCz1+nxm4MkN9SA2DJLTPoX+bZPypNRvd2YDvR5+SrI1l7CK4GjfrsP/h6M+GdZS/4sBdfTD6ecNJi2hsLki6aWTU+1yfS2ozFNGDrjOPlGC9HlNGyF7nb4yuQemUHKWm9xsXm0MBx0VgD6oqbe34Xw7Iui9Ve8PQp6blRw1kCCsz19q+m7yfe9Qzzc6iyfJ+F4I/9bbi+Ds+x6/YvxNUmNq3jSaxfbJmzponJ6SJuHfg7WnFbY0Z/jp/9fuy7QXpU/y0NW/+nQBg96OlvjgV4qKFnsf6PUIfhAa1e/H3ZTn/f4iU2PxP1UTm7/jbYrYgke+SV6r+gLEyU0mW13jhjWS8KoqOHQUOTy7NneAS6n/aw/sVjKUM3PpjNLoxAt4QYEcER8/QYJ1z6Xr6L0dBcTTv+Iy09WmLc1CFseodZ9Roej/GQytGFJcJ98Ov38bBHtTG2BMbs/+K/VV2Kg8GqptIjw68NBbCJwunr7AvJ9VeN48aPHxcD312vKvw9FlQGv6F6H8IsP2nlN94d3ujLjiBWO6DB8+Xjg0ggaPny6+wYxL6v7yfRFcuiWgrA+mqNPleWIMfLva+chS5PEpJOwnZC7+RTXXwhhM5XBSYFo0WEE387/OdDpPzCUVry/E2POk77S9VPJ9dYubOOAHtOZAXeoQ6+HMeC7uh6uw+3oI9fHkwMTjRqDXDg8ZVjg9Y6bL1WRW15m1o8BL4YXkggSeCfIp+XstSuC/HB4adK/B1Irmv6fUR1ZWgtQtYCBMbA/x2whoEzhp/xlC8n/SjOUbzM8aREP4Qu57+K0iI+NvWywRcobpxX8Ztxei854dneslxiVlB4kF4Z875jUbeTBAT71q7027COMtJFJk7upSCGV+mubaP9+CuacAdcnal49j349DO3ajsPpdiucKmV4S5PD0Pb3//GUu7VsCZ5CXiE7JD4IFrKfUtfrk/fxXIW6jLhDXHezDkrv78nk4IL/QipDJcDCLF5hf6fuEuD9piGNhTusfL/8cKH07qx2HHedQfdyWPvv9aQQ37mpXrS1JriprbFf8vc/Dtz1/t7gnjY2nsZkHGpWXx2/zBmNnB5rrURl/ry3/W+Umsz/E+hxlMb8djKL/e9tE98npK3v/cEJPl7q/VuE1XGbk3PvkJC+X5Z0M5Kt/jElfeF6fv8m4vcfp64ta1qN3OK5tReyeG2mp7j1ynrX8arssdp8Zl6cfuCevuGeEuGVDKABjRcuIj8qs91Ao0RBgQNQAAAAAAEJMAAAAAFh4yPAWQrsn3a0EMdaP1nOAQaXNs5xk/+xnGCycIGODNVNHVJjCbwq+96iMIa8k1eoxWFwqmShe9x/jGWagD/Uth0fS2MtJWEhh9cPVsHD2BTR4FIu/F2bnIK/kw+jfoo7nLsHg7EjEn9tNDJ6eioxkYXAhaYz0GwhTdr+f5PTuixFMyHAx88/ARh85r4GTe3fvD5P7fFcbTDCVP5PKiNJoZ3jmqkuYyHsDjs1GePAg//T/xSbonpblYvfsyl+tfmqMe+ovJMyYTNVF182esENvSrvZRHghbMxDmZdwvqMV/uTcL5K33iX/oIQ23h9B+HJ9/JlhfUZvXieNj+Ynjlwef65qRyx8L6E97x1MZX32737/6H5ku0DcFnx7w2WYfzHsO1YzTkJB9lnjf7SVf0XwnlzuvZadzwurt7jqY1v2H+9vCVw3F1pGw2vv+xHlSyD/qMg0BhclTF14cDq0FkFtXwhaadxlGpPEJWysfnpnBn39hiETgz7oIvJAsD/fFo+v9OT+1oXwcBpIHAeXwNNhdaW/w+GpcDSGEb1+gHyedJXYzVhnNFGQRuD+i4zY/bkJfxvDEHVofEg/mSyjBHIhTEL+/oO3S3TJUZACK39Wf9L62X0ILk8SfqKEZWfD6mf1yYbDfS747c+qJ9U3gv9PMV1+x/itJJL2fsC8T1DyfX7/eNNcB9bvBBEFzczbaeXu4L+OjciqQItft5X08qnC+atUtRPKG8E746Y6p2T68iCHbb42LzpVzcbDAfxv0eNim0nkWzmMoeX0BfxO4wLjwBeG80i5SYyd+TzIsssK++Bxtr1+guxj3XYZHk4iEGntLQe4OKJGJeTyrut1YiMCA1/GfdycnFUKLFQuF80nrVcI40XNVA8sCBKigH0NxHy5r4A4qtewjkjNDop0EoN8Z0GP8kvUALKDV5Dre5O+qXJ94wCbVKPUJ65WJWIXzU2069Lz1+n91x96yj+8olDVOej0uPpnY9N+ZPb0OxuVb+MmXmjk/pOh+fkE8cHoybGmnuGUAgxOX+O/DCJoaTs6Q3P4MYb9kLFNMnFSKJFHWF9VxXKCFAismGAjP76zaGd5y2HOOpUm/0tjK1cFyiX7fCRiObjtDT5TqTB5B960hHcKs6uGftPy0FlB8n6+bYV/E8IWgPsIjZYaDVClDDr+EsZHZ15/paNMKEV/QnMjOd4545PSpaHzfys/XhE5yqsblUUO/7fdV/1bfX4jfz0+E44U2hZsGCN/uHd9dJNBHlY1cIXJj38TjzHu+rYiK7/Ik1E3YvQjsb3Spd9wmxAnit+6112+6Q/TuRVXJ+lVwkuoqnM5eXfuEtRDWy3mSV5aLEq0o/XuIrJT9V6tTbpLcL5et04uu9YZX7dOENxj6L4/QdIWNWnGqt6/LjN0uoinD6XGd+RmRiMELCFw4PxNOJgo0YugQNwAAAAAAEJMAAAAAFh40HwXHWBey7X6mow9Pj9y+aAG+MwJdCsdYorf7QyOxH+wU856mGUU6olewO1e5rxkYPO0Qw1O7Tz/bQgU8gTd3XqsyypyNPYqawsR/j+/WZkhBVgxhZvtz54yELXNCwQOWhtrVNzcvovt8fdih6mpJLLeP5h2ce1D/uPHAdy783eFkYS/twQZaJ515CjOwbozblRx4Eu4D8sY3+gvuv/x1V4+CGUM3/zAgt96Ghe9PdI+6RyqMhE8CM0e5YZXEf4vf8JwxpvGjhqOKHr6pRcEj083x95otN9PjOEDwcayjJxg4aT48Q88uwEAf94wfx72r+ldVRnffLhLyGj0GWjplcVmmB+J+NmS0WUn/ai43FKv72WQg+ouMNf6PqLkwmZM+sM8VlReGXR+4xl8ShJW/Q+O78gxcKPL8OJbH9VYv1eMgiGBZyevssfBwH4X5K+n+fJ8t0RirkEx03fjV4srk2Svk+mX5eJmisng1kxTu8hnj/IuEfKuf/3JnnV4QlfQ0Sw1e7eqC2Ph8m4I3eKz/4Jtm/lV4nx80ehLy6pk2J8qm3GUyF+J5l5l+nXVz1/p3eL3+Ylt678vTNYMfx7LsIcV7dnf0tC+JSDz09jNBbeNw1jK3Ds6maeAf43ZRg+HONgLiLg0nu0e2vtfsReaqcMdhlfV90T/mlGZyz6eD9mhs/hri1xxksfkuo6/GwsKl9bCR7mXyeWKvjOclmIO/a85DJ5kRPjJxiOZ9/mEENy1F/aMHo5XDEIcCXvmEuGE/0v8pqzCMXw7zQ8ZbVVGhZvd9FTQ678bC/+vJ7S+MrB4K7+q09UdnPwzBb+if12N+OvxLC3hf5ZDir+wPfiYbazgensXrVOrHeVkzHys2wuuSyev4pgX1AYwy7/wwkuXJjjT0rwthpm/yEMeM3fofS2K7j8bPeXpPjoIn77P1+9X/G42MXpwWMVf9m42/5lb8/Wn0S/FXuNnh/7sn98EA/KvlZlU8H6mGleK94ZwHpHWT4fjMI6A8CH0OOPfyAcZir7Lq4vw0v88BDIaCt+wxGQXK+OnNiB+A8PPr/QF3rwQZtsuXICR/zf2FRUXBn1x9F1dDPTDqeyH0DuxV6BWVwf2GZ8oYW8akDO6xnDk7/lECGJfKxvlePD6iaT4cbl+j+hnwxgQ9ElYH0HoX8rr/4Q9qUQEq/ICAOuPzU4KRRGELgoZ2I8JMUT907XqGo6XTRg3rYXS1utE+AhGnm92/6EeBGJY60FiD9l0E8YDQV6LrlH2T/1tX4R8LZJ91VhHJGeDDQRcEXN/e6v3BBTG9oOzP67og8gBCE2XM0bAxftdvlo19j8fDAaZ/ZCUK8rNU64yHE9z/HAWI6cqg1a0OFCn4/4cU/rxPcbgxx4P5RqyGWH32EfeM3KBM338fenkf7lppDpn+6/HSLT+Mt7X4CX/H25bCPjbSfNLh6fjfhDHR3JEHa/DtNfy+08VcrJ98yX4LMp6Mt/ICDcIDHJhnxkIeHSGEEIP1k19eWfqgCsg6WJ0KCMMcqtB/OCxcGzJxm5/iYS97HQafq9qWUWhrWT/1NhhCHB8fewg3eaEbDRtz4hJ4zw0k3NqQAY9IcbAAGc2x8dhTY0e7uT2TuhnnM44C/2sM1Yyty1YpP9KxnI4bEfHKMWzJBjYKJ+/4ytG5cMxFbOo3sg+UVIb2etN/YR/v4Rv+cNwErVHH9f+H5B3HoO9d/aJE+eJUdzq/XQF/snIohjkmTB34/lGEj1qnS7F2GOoLS+CLS22Ngglbl116I4ZRTllEqfq9t0sm79XhPIzZc5fxc0laY5ffVNknNP6hePj4Joz2TA1KI9WtB/14T5A253xITTw3jkGe/fCsONP699Xi/HDiXAg4wfpcTloYTeY2GFP6ek3COOnCC2tuo/vqjd/E/kXYpUU5N6WtLvn45nrD9aJ6TU+J03MJaHJuuCm3187uuQgnkyRSdJcJSFja0T70RIdkTlzvQoymD0uQkLojv5YdzHuGHoslOrUQ79lOQ0M7JOkjJx3qL30SO1GO+eTENE4ZafFVkp+oI6yqWib/cEMhe824ZJ/fQQ3unDuZDqnOeIpxGWoKNGXYEDkAAAAAABCTAAAAABYeNgvBoO/QLPF5xizbE+fabi/FdK1Quovgl9abxt94VO4dUB+Wrj8VPGnx+E3NGBwzcQn1m+m7jIfa2nXuiN+YygUNhyGbhV8dw5GxmMoQCaCy7gSbx3PlvR/v/cd8tBN/a9zUUarvLfJ/vYi0bCzeSBjMvGn3W4ztIMda7jMdamD076r3wauHYv8tSGH4IFE5Pe0rGZ4Z0P3ysXusZ5x/HZEAmbHLCsikPM3o3BAP/ERDg7auGFuIAGRtFJYPrUF3xhO9PSZbLsV3CJ3+L7nMfHeY8OX7jbR4f5s2dW4rfD1UucH21jLe8wgtKoxhi68diD/udLs5hkvy+nVvRP2whvxr3YRXqkgjhhKX8YInmbu3CfvGPadcb+L15M9xdInpSYl+LqHspZ5yXWGFeTCb9WpE++ouePu+9rkdXt+Tu9rjOHUL0f88rfjYLKgfsn99Ce428bq4yCEBDniLYmPiLqau+Hdjsbz6bb/zEcksvhL8cS9cZIkdfda5ji/hDnY2HGDYcn56NYRDE8j8uHFeIxvL3eK4QrMxrzBg8n+9jesfdV44xw1mfQuK37kgPmxf0+UsOcTnz0OIqCDjZYfmJcf8+ndr64rLkSsHO4dQug3cVw1GxThDhE+B+0a4NB9flm/Ds+tBCPbsD/j4n6+lYNipLHU2ef+iceEh8O8WpC3aMX/HeUEATio6Oj5M/x/B3JEhnJD77w7X4VvN/jUc2q/YP8TXFGgX9fGiP+j9nhH17BLGH0kYnJ+7qCDjQUvwywp1bRrQf8nl/jcxBbKt5dKZr5KWg5bjYYCHE6OK5bvX6D6vHSWNFynTrPeMlH4YQ2eYEjdz8blQqQKksrh+Xygg4l1I5UEm82zwvCa6iK/ZI8n/eFZlY4DD7B/IIFfS4e4Xdv511+1vgphlpvnzv7/C3xoB0dFKii/GROr+vw1hpMEbF19NB93hH3c6Hv/HQskaBnq/ASsuD3673dB6VA3jIAEo0ldN8f6QifAzTPN2Ke2avyOsPsfWCP/5GZcw9zI55TBrEk/7wjUA8H4b3PfoYRV3jIqW199w3sjCDk/HY1UuIlHwO+R9SXD+3z3fPvIlcNS4Osn32ulye+b/EQicvcdGsBI4o+keV+EPj0BNLKCCOmsGOSNYVQc3Nv4LNz06zpEEPvT3QsywM2M+ELBvrg++GD8wYCvlzkGNzPhHKZfzggducN+MtsXwy2xscaeGr142r8bMbcieIqDEz9I1d22261Awd50QHrAWh0SNr2AvvbCOMDN6oHagGSuiDW6aJhPPDlXmVvjt3exfOok/0/4Kd/hHy/a/j5P97BVdl9opgKqRBbuPqZ+4j/GcNoY7eKYfdOjudDGB/rRCY8rZvYU+rEZWOSOHpEzN2tLtWaP87G74zhqRV0OTMYPbH7ZU+7xm15lymJu5T/QE9hmNtnjagTC8OdBgeM4TVe+UaVNeACPwx6ZFcyaPD+UtmEtCX7L8T0o8kmFHhtVYrHCtvpyw8fy/DSHH1Jf0PGwOARyApEUQ663prhWfHLC+06/T6TwnH4jvwQvbvVWEbVMp6YrnDATZwqX7Q+MkZGgTuX78b4aP/NGY947h2XuUth0SsIlDE0asfOv4+QH59mDvJpJkuE2MNV0VV56CM53TvNKK0DCdixvC0dLXwyunPFaAz+v6AoYJ/3/JDDNy4EvVzJNhfu958X+t60rUZdzhrv8735xurcfl/7BjIUl7nq52qTGYyXv70hLdqjr+/4+30LOGBhIw1RTO/sS12H4aUGL4p39imU33H7Hu8T0lGHnuGTuq8VSMo+8nv+FYRNBk+f0UWqOMJth2oVrp/xlaICoN2E6/ayBeNFr38EE6j240XgybPr9Dw8tQj4+N/ad8XbST37xl/YteGteefPjvDOzHQQH+HE1N762Er8e9f6HTv7yMcqhBsXLyTE8piFauDqhxO5OCq/hMxTf7vf4QvRY2fJURjoo8mX8vHe5UHe95Pq7xmNVofZVHHTZfneIFcX3xyTNR4l3icgNNu8qnDwp3XCVeQMGCT1rdV11GcRma/v8ZfMl350jvyU4Tyzxobkm3Thuvw5ScYT9fnV4ulDvJ8JN3qnUhVci9hPd3vhpaw3zdYJ9bt47jtLx4T8c3mjXm4dPIWWQsmSoKNHlIEDsAAAAAABCTAAAAABYeOA/ApHuLP4nmFrqCrgkQyXOjXVcSr4R984gj2nowRCu1bjPDjPgyXX9+/fxsPuv+cZzmsJeU0PDBGsJogszzks4O6/2vGY4JY8AOoiPoYMv9DBxBHbXxxcT/2IVzBA7Ffx8eCu6G44xaQvR9FrhCGU/3/KxhuGcbhjT4uwYLHj5w0yEwWiVvD6Jb9juUtloISWOGqzf34zI2So1mq6n3hZkMwETBcihf8f2phiGlSIEhGhcf8cLrf7qQ1e4lqXrjKP0DZh2/x37kGMnuvjvvD+tFZS4QhO/v8s5CDzpQ+iQDYrkS4rx9m/7Qzmum/KPUMg0kfRmHInf1uFi9qpHp7YayoJwIe6YYXeAALqvq9PfXgqy5uyT99+4Rv+4dqz82C1GX2XGoGkQjjDFb9qTDvFeHEWLw9w7xLieGsKYvX6Pt8Z6Mahe50Z9no90UhfhG430+PsQb2ubOGDXI3meGL+Mi5IsrHZYceBBup631kJC6vrc0pJCeUu22M7mEENJTnA+/ehw0i/PgwjoL+WiHnTfa/8iuSCPjLXuthoYJeuThmFZ0MpGb+7xmZfpv2g2nJ6WTUM8ffHnin7fFE+yuRIFfWtRwAEFl7noIWBmOj19M4v5ygxITJC+4jhG9+779x/oWj2GWjSVeHIbhatp8un0m67F9dMcK1pLw/N8apu+uMiwNBp4uTs/0B+Nj5L3AsPTNYXclUAg3amd+abIsqhQrhCeU7Lq6NfRelwhnkpCA1oav0lJ4eXvfHg8vQQ09x2lEpj/uHuLIPHX+MuAvD1tKRPDqEopkN24OxBdf7AYcXKi9Pw9gjeHYzCrZVv2hp0n2H9n4X6GPDZYEtTCm7EmYfQWuNhxuSmL60cTjbyHdLvr6C/ip+xyrzMRpa7G5mmitkdq8TpvifqV4F4Ju5Lj8hkzsU+rq19AMgQBovH2KP+dDNkqnxloMZs/fO/V3t3j7fGhE64EncGMdTGFsttFxKICBvuQU/Cd+N34HnQG4TvxmZ2pBoNi4R3fvNheMTpuwMy6Arw9NuHsZztTOmuH/twb6MBqcHcZsL6AX8bGQqPUeGN9bpjhxGr+5jAa8ski5j/rsWi6vHdDezMHDvZuPy0Xye2QrSi423/3Pi2E99+GeMbIgbHxqhzt98zMkvjp/yL9+6uev0F356p/279LOFdg3L2aW6/QX4TlBf5DHvsZHHQZ7fBti/i9piR9GxRUH/lCPGBSeO5R/LJNwo1rfyHsflIvG9k5FjP7LmRdWX+yEoXLB8PLiN+a+GNzUwUckb42cPfBTt35Ug2x3NsZP38bvPSGGBo1jKbMbeOub/Gvr8l/VPsI+PYGRsLHPluKQVPk/+hk6jucgq4BUa5mYZdhsy5eI17/8Zwg0dbObDuaOcHExcB8PUeYMD7T0ds1QA3xmn5RSQ+OamTWtwjQ7i2hInGX5BsPrsrxgmI37uuEZWP3xmmG+SVB/Ck39jnSSPHBid0H7J+0+EtYIvP+uMuLUQ6IIPXjHh3t1gZewfKfxtDSPyAaGCLseVQQl9AJf0vjKBBa9QEC9iM7UB4P8PId/+MzIIdRBqiosxm5S3lala8/gg3hgIIXl8Z4L2gH7vhx+f9tft/jaRN8tdtDq6jg/LzFhuXqKeDtCCbzxw0OT3z4Cxh92K6zBi/pX9IhO9Id9eY9cOP6RBZhbDauh/pmKlGsaBY+HZ2vBBDcrFcABvv4T8d5pLkNf5gn4Q7vbb9von97gl+8PtY1ypdh7d8Q91qR3PBfb6urfBVkDhiDOEHGVNHggSGnZ8bTJGf8eLxnoWP0TqBcFClCFZfYvjOcLBvbXFhoMmgQX94IDfXoNpoaPLBHxkycWGWUttbQCn1IrNktuBC9K02CX1+ievWF8oiHGV4yyL3lV/sPwtz8J3BzhKgxW2IYe0Q2yua/nD7AgzwlHwJvaER9Nfm42/GRkuzwjpBpZU8+dft/gkjYx7mh3H0WT17xl+BFvA05PfV+uAD9xgLCguH46BO/D7+8oGD3de44mf93jPGRBNcg/e7ziA96vGcqR/LTT5YfCVvj799H4m47ZtSV/G4Ziv3IvjvLvX+33mP17OtAv/G9lF9KauGD38b0hhZXGpBh/hAUs/EbWE7QKfPwnd7lkOsv4U8zXKRXDkXZvfcpNj4RkalQVv6Y9CBwyUkIgaNw/dr4J+PHHlqdIx8LcbhLw2/6Sm9bJfWT+qlHR2CR2p/cMpF/JGT55Kb1qEeVjceZXZ4PbJ/3hC1zjF+NC8rggQEWwhecbxkbf79sQkEZP+qyeTjfDC/oOjq85dfmZQPzX7DX9fie/DcgXw7ZQjfJj/uq3sZKvb6F3lY5+M58yn7zJ47e70cXl5+4X5pmEVu9IJXvKodHCgsduEVeK8MvccNmJ4jubb29Lhu8vr6LmdEZe7my27xnj+I0bf237hnZ8H6Poxkj1/eSQsVsPX951GZmv1wzsFuOnY4WiBP9d4I/hGMiI9D5WQ+p/+tuN4d8duzKPX06/rDNFN3/6hnkjt9W18dnon5DetRVHj1eNy2HSJM7+RCOGRu0/l+u9HySEjoo072gQPQAAAAAAEJMAAAAAFh46BPcJ1ahODq4MYJMh+COCnibPyHx9MR3eGxSUdxe/w0nz8EeUhRt0dfFzzG7AZbsylnAt/CHuQfy4YfwdsgkQZggBCL3x9f9jPYdWX7/fLR/GdZlJcgKRZxB7Q0KU0cE+4gfhvy0u8L8ZSys9COQohQQUzquEhLhYDcrhHhPtJAi6v4j6Kappqaw0g3uPjgwvCJx3ok5h7x4cnlIPjMg+o2FvDfjzYf0YXOHLmfg/p+Lwyn0a4sqQPY2tivJXv4zpkPsq4hGDzBToGBx+/oZ7Ax8+gxJ8sEviiaw4x8tN4b4aAADckL/Hx07WBAdA4fMfhee4AATNhTj9Il/hXUEGvtOY+rNv19f47tSwSoDpMvhDQG0G0KZvlpfxUnxYM19g5P38ZzVHggWOFr0/XS+Fps4Xl0o2XaRB6LHrxA19vjoyrRcMZeL54D74xlVJYXkq1CND+aNxvlqY+T3rxk8EKUfaCxq4IONdH+r8JvdfMHu8VPP/BT0JEF8wcQ3fl/7WfL/fGz4zb/vl96hsY+v6dXUifGeaCXNQ74vpeGuS7np/4e8djsycZnMOaQRNdJlr/T8ZHwg/3YH05zVs4goUH4D4Qve46q04OWqfa3F3xt+IGWkX4uOmtzKR+4ucg3fnLblmJXggDDHFZcuw4Ze1xd73zIfBHzIPS8I9Zc0938VXSvbp8bv22b+vqvp/w92hoKOgJNEuWgQFLAN/1/R/G1gIWAUHHIfzJShAY4Dgr3icOMlgj8Pny9no6YRkLVRFOcYMNxZkwcFumrFwPid15jVjb+F9dPaNhTv73jcZ3ciX0P28VjY6N0t/jOuB4EuaoHgdQ1akd8qTpjsGAjcJgF4JuvO96PgN3hOMvjNbtGI9b7fxO6EDv5F3RSgwtBB7jsYENWmWvdTd64270MMsDVZxYfvpPe6FjtjPyIa/X8TeVK+96pwtGFufMnGZjPzhK0SWvh6soNk/TrGTqdFOs2Q2tloIn1q7f5YS5/JF98T8ycYTPC/E5QwG6FKGA0rx3lhTPWPLg8VXKIvdt7/G++9X5cuv13nriL2rvrve/hHHhyemVSqBCjw6LAQCvLT8Zwh4CuiXIFgFA79kmggEqaoLvGNmgnCnOxz/cy6J0XexeF1Jll/4XVsn+nh/zrT/l5UWvt/wWd7HjOVPyq56pp+38Mcd3hxTSVF2WHqSUU/0ycZxgLCghcb5jiBDRLF/K/h5P+fjeKguiUuFwlKtIp90F+v422ZcLbb9nDYqe2SLkjg8OhdqyEFd/+NrAaOw+UdAhbxn6aV2ghXnUtVGYyAv+QQKoOn/xnYPcN5rhqX6SQWFWIXeXTGgqJElP+Oh31UZmO00arNbZWJxHoduU9z/xUYX4lIcrEv74QjQjfMpBDodt03cnq1X4w8u0ieS/iIdQdruj8nv9DK0gq/etA00a7Yj/gafsHYQrbq8a8iilfh/5Bd6wF314wC5tYr2F2a43WEnBqTaAAjAYg4g9j6KfaNDBo1+mB/BF/jZTPLXloHV3vDN7sOyuO424ROS85rbMS/h7wLjxapZ09yhvX2/43poNCoEFDq5pFDo/1J4Q4jVhJw9JLsMVzV5gyNjN4f4Q2chM+48Cb0lnwylx2HF2C2Jdd6SsfvupBE3ve7d0MzsR2hWPrUDxwXCuGaXMPcyXDM7e5t3vZC4LN9xwaPaE8os/xGNV40giMqGvHXY35Aw2a0VgT4n15YGqG1c+gUwYJAh17J9Ad2ZBbx6D1oOiR3hFZvr+xfGe8IXGUYr5c9cboZ3Qbv08FwP9B48SyNcy816/HkyYR/G5EL0kgy25mQXx7/7cLtB6kkfX9FQvDtM6vbhrHfkbAncuSJIKzu/o/xEIWeC/2bmBZc8FXlyNJn8ehMvjeB66/YcAwFqbnHkk2BNq0K1gTPqxA/UpywTSCT1VuEAsPP9gNwRQu+QbDcNoNgORSYNlqmYUnjfkdTLfoa/QXd8n/WOyMs16ZYvsCAOJHVbFLG5snkwurDhd7yfw7Tfof09aNh0Y8bF9pout++H/hm291wygkCJC8F2fKiYPbvgvxgbXSlbX7LJxtU6zFwryvBA+FoP6VBTakZfHAdNE4OvCi+cMB/gq4IfAbe3G2JTg4K45UhqWhej8qJ+UmvTBbz/mEHUMa84p6fT+M40JinIJWmiBgw5DZFY7bb2OrxVA3xuCe39BTfw39N9sYr1iHb9x4662+YYpe7+ImGPD7h98FmOFXvmVd5b3C/bZpbaoP/4/pax5AfwP8ZIsuBZ6N5lgKcCCpnQnwbIUZcHD5kvjY0A8iQcVtNYYaYObTTwZYwerpjJtYq6B4dSWrsv+NsDCwLQGLggKGEL8ILxuGvekWiCVrRT8ejrp/TrEwxfH4ZT/HzR8TqT83wvkBR7FT6vJ8bcz1vmXQUzCyn/v73whyo7B+6Q3D+N45HKGiO4YMKkR9rlzgUA6JHeLSDYOpi/r9B/h/1ggt5x6+YAAjwWdKgT1rm33/gtmY/YfBH4+AmyeX9Agw0kgyI32+kNwOLZk0Dh+YsSa3/8bUn7vqHUuB6S6